#version,serial,flight,call,time,state,state_name,acceleration,pressure,altitude,height,speed,temperature,drogue_voltage,main_voltage,battery_voltage,accel_x,accel_y,accel_z,gyro_roll,gyro_pitch,gyro_yaw,mag_x,mag_y,mag_z,tilt,pyro,igniter_a,igniter_b,igniter_c,igniter_d,connected,locked,nsat,latitude,longitude,altitude,year,month,day,hour,minute,second,pad_dist,pad_range,pad_az,pad_el,pdop,hdop,vdop,sat01,sat02,sat03,sat04,sat05,sat06,sat07,sat08,sat09,sat10,sat11,sat12,sat13,sat14,sat15,sat16,sat17,sat18,sat19,sat20,sat21,sat22,sat23,sat24,sat25,sat26,sat27,sat28,sat29,sat30,sat31,sat32
6,6583,4,,-0.3,3,   boost,-1.47,86427,1321.28,-0.28,     NaN,33.7,4,3.99,4,0,0,0,0,-0.06,0,0,0,0,    NaN,4.02,0,0,0,0,1,1,9,32.9395158,-106.9122654,1390,2024,6,21,22,56,49,0,0,0,0,1.7,0.9,1.4,0,0,0,0,0,0,0,29,0,37,0,0,0,0,11,0,0,0,0,0,28,0,35,32,0,0,20,29,0,0,0,42
6,6583,4,,-0.29,3,   boost,-0.49,86437,1320.33,-1.23,     NaN,33.7,4,3.99,4,0,0,0,64.27,64.39,0,0,0,0,    NaN,4.02,0,0,0,0,1,1,9,32.9395158,-106.9122654,1390,2024,6,21,22,56,49,0,0,0,0,1.7,0.9,1.4,0,0,0,0,0,0,0,29,0,37,0,0,0,0,11,0,0,0,0,0,28,0,35,32,0,0,20,29,0,0,0,42
6,6583,4,,-0.28,3,   boost,0,86428,1321.18,-0.38,     NaN,33.7,4,3.99,4,0,0,0,64.27,64.39,0,0,0,0,    NaN,4.02,0,0,0,0,1,1,9,32.9395158,-106.9122654,1390,2024,6,21,22,56,49,0,0,0,0,1.7,0.9,1.4,0,0,0,0,0,0,0,29,0,37,0,0,0,0,11,0,0,0,0,0,28,0,35,32,0,0,20,29,0,0,0,42
6,6583,4,,-0.27,3,   boost,-0.49,86426,1321.37,-0.19,     NaN,33.7,4,3.99,4,0,0,0,64.27,64.39,0,0,0,0,    NaN,4.02,0,0,0,0,1,1,9,32.9395158,-106.9122654,1390,2024,6,21,22,56,49,0,0,0,0,1.7,0.9,1.4,0,0,0,0,0,0,0,29,0,37,0,0,0,0,11,0,0,0,0,0,28,0,35,32,0,0,20,29,0,0,0,42
6,6583,4,,-0.26,3,   boost,0,86419,1322.03,0.47,     NaN,33.7,4,3.99,4,0,0,0,64.27,64.39,0,0,0,0,    NaN,4.02,0,0,0,0,1,1,9,32.9395158,-106.9122654,1390,2024,6,21,22,56,49,0,0,0,0,1.7,0.9,1.4,0,0,0,0,0,0,0,29,0,37,0,0,0,0,11,0,0,0,0,0,28,0,35,32,0,0,20,29,0,0,0,42
6,6583,4,,-0.25,3,   boost,1.96,86423,1321.65,0.09,     NaN,33.7,4,3.99,4,0,0,0,64.27,64.39,0,0,0,0,    NaN,4.02,0,0,0,0,1,1,9,32.9395158,-106.9122654,1390,2024,6,21,22,56,49,0,0,0,0,1.7,0.9,1.4,0,0,0,0,0,0,0,29,0,37,0,0,0,0,11,0,0,0,0,0,28,0,35,32,0,0,20,29,0,0,0,42
6,6583,4,,-0.24,3,   boost,0.49,86434,1320.61,-0.95,     NaN,33.6,4,3.99,4,0,0,0,64.27,64.39,0,0,0,0,    NaN,4.02,0,0,0,0,1,1,9,32.9395158,-106.9122654,1390,2024,6,21,22,56,49,0,0,0,0,1.7,0.9,1.4,0,0,0,0,0,0,0,29,0,37,0,0,0,0,11,0,0,0,0,0,28,0,35,32,0,0,20,29,0,0,0,42
6,6583,4,,-0.23,3,   boost,-0.98,86422,1321.75,0.19,     NaN,33.7,4,3.99,4,0,0,0,64.27,64.39,0,0,0,0,    NaN,4.02,0,0,0,0,1,1,9,32.9395158,-106.9122654,1390,2024,6,21,22,56,49,0,0,0,0,1.7,0.9,1.4,0,0,0,0,0,0,0,29,0,37,0,0,0,0,11,0,0,0,0,0,28,0,35,32,0,0,20,29,0,0,0,42
6,6583,4,,-0.22,3,   boost,0.98,86428,1321.18,-0.38,     NaN,33.7,4,3.99,4,0,0,0,64.27,64.39,0,0,0,0,    NaN,4.02,0,0,0,0,1,1,9,32.9395158,-106.9122654,1390,2024,6,21,22,56,49,0,0,0,0,1.7,0.9,1.4,0,0,0,0,0,0,0,29,0,37,0,0,0,0,11,0,0,0,0,0,28,0,35,32,0,0,20,29,0,0,0,42
6,6583,4,,-0.21,3,   boost,1.47,86429,1321.09,-0.47,     NaN,33.7,4,3.99,4,0,0,0,64.27,64.39,0,0,0,0,    NaN,4.02,0,0,0,0,1,1,9,32.9395158,-106.9122654,1390,2024,6,21,22,56,49,0,0,0,0,1.7,0.9,1.4,0,0,0,0,0,0,0,29,0,37,0,0,0,0,11,0,0,0,0,0,28,0,35,32,0,0,20,29,0,0,0,42
6,6583,4,,-0.2,3,   boost,-0.49,86427,1321.28,-0.28,     NaN,33.7,4,3.99,4,0,0,0,64.27,64.39,0,0,0,0,    NaN,4.02,0,0,0,0,1,1,9,32.9395158,-106.9122654,1390,2024,6,21,22,56,49,0,0,0,0,1.7,0.9,1.4,0,0,0,0,0,0,0,29,0,37,0,0,0,0,11,0,0,0,0,0,28,0,35,32,0,0,20,29,0,0,0,42
6,6583,4,,-0.19,3,   boost,-0.49,86415,1322.41,0.85,     NaN,33.7,4,3.99,4,0,0,0,64.27,64.39,0,0,0,0,    NaN,4.02,0,0,0,0,1,1,9,32.9395158,-106.9122654,1390,2024,6,21,22,56,49,0,0,0,0,1.7,0.9,1.4,0,0,0,0,0,0,0,29,0,37,0,0,0,0,11,0,0,0,0,0,28,0,35,32,0,0,20,29,0,0,0,42
6,6583,4,,-0.18,3,   boost,-0.49,86433,1320.71,-0.85,     NaN,33.7,4,3.99,4,0,0,0,64.27,64.39,0,0,0,0,    NaN,4.02,0,0,0,0,1,1,9,32.9395158,-106.9122654,1390,2024,6,21,22,56,49,0,0,0,0,1.7,0.9,1.4,0,0,0,0,0,0,0,29,0,37,0,0,0,0,11,0,0,0,0,0,28,0,35,32,0,0,20,29,0,0,0,42
6,6583,4,,-0.17,3,   boost,-0.49,86424,1321.56,0,     NaN,33.7,4,3.99,4,0,0,0,64.27,64.39,0,0,0,0,    NaN,4.02,0,0,0,0,1,1,9,32.9395158,-106.9122654,1390,2024,6,21,22,56,49,0,0,0,0,1.7,0.9,1.4,0,0,0,0,0,0,0,29,0,37,0,0,0,0,11,0,0,0,0,0,28,0,35,32,0,0,20,29,0,0,0,42
6,6583,4,,-0.16,3,   boost,-1.47,86429,1321.09,-0.47,     NaN,33.7,4,3.99,4,0,0,0,64.27,64.39,0,0,0,0,    NaN,4.02,0,0,0,0,1,1,9,32.9395158,-106.9122654,1390,2024,6,21,22,56,49,0,0,0,0,1.7,0.9,1.4,0,0,0,0,0,0,0,29,0,37,0,0,0,0,11,0,0,0,0,0,28,0,35,32,0,0,20,29,0,0,0,42
6,6583,4,,-0.15,3,   boost,1.47,86429,1321.09,-0.47,     NaN,33.7,4,3.99,4,0,0,0,64.27,64.39,0,0,0,0,    NaN,4.02,0,0,0,0,1,1,9,32.9395158,-106.9122654,1390,2024,6,21,22,56,49,0,0,0,0,1.7,0.9,1.4,0,0,0,0,0,0,0,29,0,37,0,0,0,0,11,0,0,0,0,0,28,0,35,32,0,0,20,29,0,0,0,42
6,6583,4,,-0.14,3,   boost,-0.49,86427,1321.28,-0.28,     NaN,33.7,4,3.99,4,0,0,0,64.27,64.39,0,0,0,0,    NaN,4.02,0,0,0,0,1,1,9,32.9395158,-106.9122654,1390,2024,6,21,22,56,49,0,0,0,0,1.7,0.9,1.4,0,0,0,0,0,0,0,29,0,37,0,0,0,0,11,0,0,0,0,0,28,0,35,32,0,0,20,29,0,0,0,42
6,6583,4,,-0.13,3,   boost,0.49,86425,1321.47,-0.09,     NaN,33.7,4,3.99,4,0,0,0,64.27,64.39,0,0,0,0,    NaN,4.02,0,0,0,0,1,1,9,32.9395158,-106.9122654,1390,2024,6,21,22,56,49,0,0,0,0,1.7,0.9,1.4,0,0,0,0,0,0,0,29,0,37,0,0,0,0,11,0,0,0,0,0,28,0,35,32,0,0,20,29,0,0,0,42
6,6583,4,,-0.12,3,   boost,-2.45,86422,1321.75,0.19,     NaN,33.7,4,3.99,4,0,0,0,64.27,64.39,0,0,0,0,    NaN,4.02,0,0,0,0,1,1,9,32.9395158,-106.9122654,1390,2024,6,21,22,56,49,0,0,0,0,1.7,0.9,1.4,0,0,0,0,0,0,0,29,0,37,0,0,0,0,11,0,0,0,0,0,28,0,35,32,0,0,20,29,0,0,0,42
6,6583,4,,-0.11,3,   boost,1.47,86421,1321.84,0.28,     NaN,33.7,4,3.99,4,0,0,0,64.27,64.39,0,0,0,0,    NaN,4.02,0,0,0,0,1,1,9,32.9395158,-106.9122654,1390,2024,6,21,22,56,49,0,0,0,0,1.7,0.9,1.4,0,0,0,0,0,0,0,29,0,37,0,0,0,0,11,0,0,0,0,0,28,0,35,32,0,0,20,29,0,0,0,42
6,6583,4,,-0.1,3,   boost,-0.98,86434,1320.61,-0.95,     NaN,33.7,4,3.99,4,0,0,0,64.27,64.39,0,0,0,0,    NaN,4.02,0,0,0,0,1,1,9,32.9395158,-106.9122654,1390,2024,6,21,22,56,49,0,0,0,0,1.7,0.9,1.4,0,0,0,0,0,0,0,29,0,37,0,0,0,0,11,0,0,0,0,0,28,0,35,32,0,0,20,29,0,0,0,42
6,6583,4,,-0.09,3,   boost,3.92,86435,1320.52,-1.04,     NaN,33.7,4,3.99,4,0,0,0,64.27,64.39,0,0,0,0,    NaN,4.02,0,0,0,0,1,1,9,32.9395158,-106.9122654,1390,2024,6,21,22,56,49,0,0,0,0,1.7,0.9,1.4,0,0,0,0,0,0,0,29,0,37,0,0,0,0,11,0,0,0,0,0,28,0,35,32,0,0,20,29,0,0,0,42
6,6583,4,,-0.08,3,   boost,1.96,86441,1319.95,-1.61,     NaN,33.7,4,3.99,4,0,0,0,64.27,64.39,0,0,0,0,    NaN,4.02,0,0,0,0,1,1,9,32.9395158,-106.9122654,1390,2024,6,21,22,56,49,0,0,0,0,1.7,0.9,1.4,0,0,0,0,0,0,0,29,0,37,0,0,0,0,11,0,0,0,0,0,28,0,35,32,0,0,20,29,0,0,0,42
6,6583,4,,-0.07,3,   boost,76.98,86426,1321.37,-0.19,     NaN,33.7,4,3.99,4,0,0,0,64.27,64.39,0,0,0,0,    NaN,4.02,0,0,0,0,1,1,9,32.9395158,-106.9122654,1390,2024,6,21,22,56,49,0,0,0,0,1.7,0.9,1.4,0,0,0,0,0,0,0,29,0,37,0,0,0,0,11,0,0,0,0,0,28,0,35,32,0,0,20,29,0,0,0,42
6,6583,4,,-0.06,3,   boost,62.76,86541,1310.49,-11.07,     NaN,33.7,4,3.99,4,0,0,0,64.27,64.39,0,0,0,0,    NaN,4.02,0,0,0,0,1,1,9,32.9395158,-106.9122654,1390,2024,6,21,22,56,49,0,0,0,0,1.7,0.9,1.4,0,0,0,0,0,0,0,29,0,37,0,0,0,0,11,0,0,0,0,0,28,0,35,32,0,0,20,29,0,0,0,42
6,6583,4,,-0.05,3,   boost,89.24,86415,1322.41,0.85,     NaN,33.7,4,3.99,4,0,0,0,64.27,64.39,0,0,0,0,    NaN,4.02,0,0,0,0,1,1,9,32.9395158,-106.9122654,1390,2024,6,21,22,56,49,0,0,0,0,1.7,0.9,1.4,0,0,0,0,0,0,0,29,0,37,0,0,0,0,11,0,0,0,0,0,28,0,35,32,0,0,20,29,0,0,0,42
6,6583,4,,-0.04,3,   boost,92.67,86447,1319.38,-2.18,     NaN,33.7,4,3.99,4,0,0,0,64.27,64.39,0,0,0,0,    NaN,4.02,0,0,0,0,1,1,9,32.9395158,-106.9122654,1390,2024,6,21,22,56,49,0,0,0,0,1.7,0.9,1.4,0,0,0,0,0,0,0,29,0,37,0,0,0,0,11,0,0,0,0,0,28,0,35,32,0,0,20,29,0,0,0,42
6,6583,4,,-0.03,3,   boost,87.77,86417,1322.22,0.66,     NaN,33.7,4,3.99,4,0,0,0,64.27,64.39,0,0,0,0,    NaN,4.02,0,0,0,0,1,1,9,32.9395158,-106.9122654,1390,2024,6,21,22,56,49,0,0,0,0,1.7,0.9,1.4,0,0,0,0,0,0,0,29,0,37,0,0,0,0,11,0,0,0,0,0,28,0,35,32,0,0,20,29,0,0,0,42
6,6583,4,,-0.02,3,   boost,85.32,86415,1322.41,0.85,     NaN,33.7,4,3.99,4,0,0,0,64.27,64.39,0,0,0,0,    NaN,4.02,0,0,0,0,1,1,9,32.9395158,-106.9122654,1390,2024,6,21,22,56,49,0,0,0,0,1.7,0.9,1.4,0,0,0,0,0,0,0,29,0,37,0,0,0,0,11,0,0,0,0,0,28,0,35,32,0,0,20,29,0,0,0,42
6,6583,4,,-0.01,3,   boost,84.34,86413,1322.6,1.04,     NaN,33.7,4,3.99,4,0,0,0,64.27,64.39,0,0,0,0,    NaN,4.02,0,0,0,0,1,1,9,32.9395158,-106.9122654,1390,2024,6,21,22,56,49,0,0,0,0,1.7,0.9,1.4,0,0,0,0,0,0,0,29,0,37,0,0,0,0,11,0,0,0,0,0,28,0,35,32,0,0,20,29,0,0,0,42
6,6583,4,,0,3,   boost,84.34,86414,1322.51,0.95,     NaN,33.7,4,3.99,4,0,0,0,64.27,64.39,0,0,0,0,    NaN,4.02,0,0,0,0,1,1,9,32.9395158,-106.9122654,1390,2024,6,21,22,56,49,0,0,0,0,1.7,0.9,1.4,0,0,0,0,0,0,0,29,0,37,0,0,0,0,11,0,0,0,0,0,28,0,35,32,0,0,20,29,0,0,0,42
6,6583,4,,0,3,   boost,84.34,86414,1322.51,0.95,     NaN,33.7,4,3.99,4,0,0,0,64.27,64.39,0,0,0,0,    NaN,4.02,0,0,0,0,1,1,9,32.9395158,-106.9122654,1390,2024,6,21,22,56,49,0,0,0,0,1.7,0.9,1.4,0,0,0,0,0,0,0,29,0,37,0,0,0,0,11,0,0,0,0,0,28,0,35,32,0,0,20,29,0,0,0,42
6,6583,4,,0,3,   boost,84.34,86414,1322.51,0.95,     NaN,33.7,4,3.99,4,0,0,0,64.27,64.39,0,0,0,0,    NaN,4.02,0,0,0,0,1,1,9,32.9395158,-106.9122654,1390,2024,6,21,22,56,49,0,0,0,0,1.7,0.9,1.4,0,0,0,0,0,0,0,29,0,37,0,0,0,0,11,0,0,0,0,0,28,0,35,32,0,0,20,29,0,0,0,42
6,6583,4,,0,3,   boost,84.34,86414,1322.51,0.95,     NaN,33.7,4,3.99,4,0,0,0,64.27,64.39,0,0,0,0,    NaN,4.02,0,0,0,0,1,1,9,32.9395158,-106.9122654,1390,2024,6,21,22,56,49,0,0,0,0,1.7,0.9,1.4,0,0,0,0,0,0,0,29,0,37,0,0,0,0,11,0,0,0,0,0,28,0,35,32,0,0,20,29,0,0,0,42
6,6583,4,,0,3,   boost,84.34,86414,1322.51,0.95,     NaN,33.7,4,3.99,4,0,0,0,64.27,64.39,0,0,0,0,    NaN,4.02,0,0,0,0,1,1,9,32.9395158,-106.9122654,1390,2024,6,21,22,56,49,0,0,0,0,1.7,0.9,1.4,0,0,0,0,0,0,0,29,0,37,0,0,0,0,11,0,0,0,0,0,28,0,35,32,0,0,20,29,0,0,0,42
6,6583,4,,0,3,   boost,84.34,86414,1322.51,0.95,     NaN,33.7,4,3.99,4,0,0,0,64.27,64.39,0,0,0,0,    NaN,4.02,0,0,0,0,1,1,9,32.9395158,-106.9122654,1390,2024,6,21,22,56,49,0,0,0,0,1.7,0.9,1.4,0,0,0,0,0,0,0,29,0,37,0,0,0,0,11,0,0,0,0,0,28,0,35,32,0,0,20,29,0,0,0,42
6,6583,4,,0,3,   boost,84.34,86414,1322.51,0.95,     NaN,33.7,4,3.99,4,0,0,0,64.27,64.39,0,0,0,0,    NaN,4.02,0,0,0,0,1,1,9,32.9395158,-106.9122654,1390,2024,6,21,22,56,49,0,0,0,0,1.7,0.9,1.4,0,0,0,0,0,0,0,29,0,37,0,0,0,0,11,0,0,0,0,0,28,0,35,32,0,0,20,29,0,0,0,42
6,6583,4,,0,3,   boost,84.34,86414,1322.51,0.95,     NaN,33.7,4,3.99,4,0,0,0,64.27,64.39,0,0,0,0,    NaN,4.02,0,0,0,0,1,1,9,32.9395158,-106.9122654,1390,2024,6,21,22,56,49,0,0,0,0,1.7,0.9,1.4,0,0,0,0,0,0,0,29,0,37,0,0,0,0,11,0,0,0,0,0,28,0,35,32,0,0,20,29,0,0,0,42
6,6583,4,,0,3,   boost,84.34,86414,1322.51,0.95,     NaN,33.7,4,3.99,4,0,0,0,64.27,64.39,0,0,0,0,    NaN,4.02,0,0,0,0,1,1,9,32.9395158,-106.9122654,1390,2024,6,21,22,56,49,0,0,0,0,1.7,0.9,1.4,0,0,0,0,0,0,0,29,0,37,0,0,0,0,11,0,0,0,0,0,28,0,35,32,0,0,20,29,0,0,0,42
6,6583,4,,0,3,   boost,84.34,86414,1322.51,0.95,     NaN,33.7,4,3.99,4,0,0,0,64.27,64.39,0,0,0,0,    NaN,4.02,0,0,0,0,1,1,9,32.9395158,-106.9122654,1390,2024,6,21,22,56,49,0,0,0,0,1.7,0.9,1.4,0,0,0,0,0,0,0,29,0,37,0,0,0,0,11,0,0,0,0,0,28,0,35,32,0,0,20,29,0,0,0,42
6,6583,4,,0,3,   boost,84.34,86414,1322.51,0.95,     NaN,33.7,4,3.99,4,0,0,0,64.27,64.39,0,0,0,0,    NaN,4.02,0,0,0,0,1,1,9,32.9395158,-106.9122654,1390,2024,6,21,22,56,49,0,0,0,0,1.7,0.9,1.4,0,0,0,0,0,0,0,29,0,37,0,0,0,0,11,0,0,0,0,0,28,0,35,32,0,0,20,29,0,0,0,42
6,6583,4,,0,3,   boost,84.34,86414,1322.51,0.95,     NaN,33.7,4,3.99,4,0,0,0,64.27,64.39,0,0,0,0,    NaN,4.02,0,0,0,0,1,1,9,32.9395158,-106.9122654,1390,2024,6,21,22,56,49,0,0,0,0,1.7,0.9,1.4,0,0,0,0,0,0,0,29,0,37,0,0,0,0,11,0,0,0,0,0,28,0,35,32,0,0,20,29,0,0,0,42
6,6583,4,,0,3,   boost,84.34,86414,1322.51,0.95,     NaN,33.7,4,3.99,4,0,0,0,64.27,64.39,0,0,0,0,    NaN,4.02,0,0,0,0,1,1,9,32.9395158,-106.9122654,1390,2024,6,21,22,56,49,0,0,0,0,1.7,0.9,1.4,0,0,0,0,0,0,0,29,0,37,0,0,0,0,11,0,0,0,0,0,28,0,35,32,0,0,20,29,0,0,0,42
6,6583,4,,0,3,   boost,84.34,86414,1322.51,0.95,     NaN,33.7,4,3.99,4,0,0,0,64.27,64.39,0,0,0,0,    NaN,4.02,0,0,0,0,1,1,9,32.9395158,-106.9122654,1390,2024,6,21,22,56,49,0,0,0,0,1.7,0.9,1.4,0,0,0,0,0,0,0,29,0,37,0,0,0,0,11,0,0,0,0,0,28,0,35,32,0,0,20,29,0,0,0,42
6,6583,4,,0,3,   boost,84.34,86414,1322.51,0.95,     NaN,33.7,4,3.99,4,0,0,0,64.27,64.39,0,0,0,0,    NaN,4.02,0,0,0,0,1,1,9,32.9395158,-106.9122654,1390,2024,6,21,22,56,49,0,0,0,0,1.7,0.9,1.4,0,0,0,0,0,0,0,29,0,37,0,0,0,0,11,0,0,0,0,0,28,0,35,32,0,0,20,29,0,0,0,42
6,6583,4,,0,3,   boost,84.34,86414,1322.51,0.95,     NaN,33.7,4,3.99,4,0,0,0,64.27,64.39,0,0,0,0,    NaN,4.02,0,0,0,0,1,1,9,32.9395158,-106.9122654,1390,2024,6,21,22,56,49,0,0,0,0,1.7,0.9,1.4,0,0,0,0,0,0,0,29,0,37,0,0,0,0,11,0,0,0,0,0,28,0,35,32,0,0,20,29,0,0,0,42
6,6583,4,,0,3,   boost,84.34,86414,1322.51,0.95,     NaN,33.7,4,3.99,4,0,0,0,64.27,64.39,0,0,0,0,    NaN,4.02,0,0,0,0,1,1,9,32.9395158,-106.9122654,1390,2024,6,21,22,56,49,0,0,0,0,1.7,0.9,1.4,0,0,0,0,0,0,0,29,0,37,0,0,0,0,11,0,0,0,0,0,28,0,35,32,0,0,20,29,0,0,0,42
6,6583,4,,0,3,   boost,84.34,86414,1322.51,0.95,     NaN,33.7,4,3.99,4,0,0,0,64.27,64.39,0,0,0,0,    NaN,4.02,0,0,0,0,1,1,9,32.9395158,-106.9122654,1390,2024,6,21,22,56,49,0,0,0,0,1.7,0.9,1.4,0,0,0,0,0,0,0,29,0,37,0,0,0,0,11,0,0,0,0,0,28,0,35,32,0,0,20,29,0,0,0,42
6,6583,4,,0,3,   boost,84.34,86414,1322.51,0.95,     NaN,33.7,4,3.99,4,0,0,0,64.27,64.39,0,0,0,0,    NaN,4.02,0,0,0,0,1,1,9,32.9395158,-106.9122654,1390,2024,6,21,22,56,49,0,0,0,0,1.7,0.9,1.4,0,0,0,0,0,0,0,29,0,37,0,0,0,0,11,0,0,0,0,0,28,0,35,32,0,0,20,29,0,0,0,42
6,6583,4,,0,3,   boost,84.34,86414,1322.51,0.95,     NaN,33.7,4,3.99,4,0,0,0,64.27,64.39,0,0,0,0,    NaN,4.02,0,0,0,0,1,1,9,32.9395158,-106.9122654,1390,2024,6,21,22,56,49,0,0,0,0,1.7,0.9,1.4,0,0,0,0,0,0,0,29,0,37,0,0,0,0,11,0,0,0,0,0,28,0,35,32,0,0,20,29,0,0,0,42
6,6583,4,,0,3,   boost,84.34,86414,1322.51,0.95,     NaN,33.7,4,3.99,4,0,0,0,64.27,64.39,0,0,0,0,    NaN,4.02,0,0,0,0,1,1,9,32.9395158,-106.9122654,1390,2024,6,21,22,56,49,0,0,0,0,1.7,0.9,1.4,0,0,0,0,0,0,0,29,0,37,0,0,0,0,11,0,0,0,0,0,28,0,35,32,0,0,20,29,0,0,0,42
6,6583,4,,0,3,   boost,84.34,86414,1322.51,0.95,     NaN,33.7,4,3.99,4,0,0,0,64.27,64.39,0,0,0,0,    NaN,4.02,0,0,0,0,1,1,9,32.9395158,-106.9122654,1390,2024,6,21,22,56,49,0,0,0,0,1.7,0.9,1.4,0,0,0,0,0,0,0,29,0,37,0,0,0,0,11,0,0,0,0,0,28,0,35,32,0,0,20,29,0,0,0,42
6,6583,4,,0,3,   boost,84.34,86414,1322.51,0.95,     NaN,33.7,4,3.99,4,0,0,0,64.27,64.39,0,0,0,0,    NaN,4.02,0,0,0,0,1,1,9,32.9395158,-106.9122654,1390,2024,6,21,22,56,49,0,0,0,0,1.7,0.9,1.4,0,0,0,0,0,0,0,29,0,37,0,0,0,0,11,0,0,0,0,0,28,0,35,32,0,0,20,29,0,0,0,42
6,6583,4,,0,3,   boost,84.34,86414,1322.51,0.95,     NaN,33.7,4,3.99,4,0,0,0,64.27,64.39,0,0,0,0,    NaN,4.02,0,0,0,0,1,1,9,32.9395158,-106.9122654,1390,2024,6,21,22,56,49,0,0,0,0,1.7,0.9,1.4,0,0,0,0,0,0,0,29,0,37,0,0,0,0,11,0,0,0,0,0,28,0,35,32,0,0,20,29,0,0,0,42
6,6583,4,,0,3,   boost,84.34,86414,1322.51,0.95,     NaN,33.7,4,3.99,4,0,0,0,64.27,64.39,0,0,0,0,    NaN,4.02,0,0,0,0,1,1,9,32.9395158,-106.9122654,1390,2024,6,21,22,56,49,0,0,0,0,1.7,0.9,1.4,0,0,0,0,0,0,0,29,0,37,0,0,0,0,11,0,0,0,0,0,28,0,35,32,0,0,20,29,0,0,0,42
6,6583,4,,0,3,   boost,84.34,86414,1322.51,0.95,     NaN,33.7,4,3.99,4,0,0,0,64.27,64.39,0,0,0,0,    NaN,4.02,0,0,0,0,1,1,9,32.9395158,-106.9122654,1390,2024,6,21,22,56,49,0,0,0,0,1.7,0.9,1.4,0,0,0,0,0,0,0,29,0,37,0,0,0,0,11,0,0,0,0,0,28,0,35,32,0,0,20,29,0,0,0,42
6,6583,4,,0,3,   boost,84.34,86414,1322.51,0.95,     NaN,33.7,4,3.99,4,0,0,0,64.27,64.39,0,0,0,0,    NaN,4.02,0,0,0,0,1,1,9,32.9395158,-106.9122654,1390,2024,6,21,22,56,49,0,0,0,0,1.7,0.9,1.4,0,0,0,0,0,0,0,29,0,37,0,0,0,0,11,0,0,0,0,0,28,0,35,32,0,0,20,29,0,0,0,42
6,6583,4,,0,3,   boost,84.34,86414,1322.51,0.95,     NaN,33.7,4,3.99,4,0,0,0,64.27,64.39,0,0,0,0,    NaN,4.02,0,0,0,0,1,1,9,32.9395158,-106.9122654,1390,2024,6,21,22,56,49,0,0,0,0,1.7,0.9,1.4,0,0,0,0,0,0,0,29,0,37,0,0,0,0,11,0,0,0,0,0,28,0,35,32,0,0,20,29,0,0,0,42
6,6583,4,,0,3,   boost,84.34,86414,1322.51,0.95,     NaN,33.7,4,3.99,4,0,0,0,64.27,64.39,0,0,0,0,    NaN,4.02,0,0,0,0,1,1,9,32.9395158,-106.9122654,1390,2024,6,21,22,56,49,0,0,0,0,1.7,0.9,1.4,0,0,0,0,0,0,0,29,0,37,0,0,0,0,11,0,0,0,0,0,28,0,35,32,0,0,20,29,0,0,0,42
6,6583,4,,0,3,   boost,84.34,86414,1322.51,0.95,     NaN,33.7,4,3.99,4,0,0,0,64.27,64.39,0,0,0,0,    NaN,4.02,0,0,0,0,1,1,9,32.9395158,-106.9122654,1390,2024,6,21,22,56,49,0,0,0,0,1.7,0.9,1.4,0,0,0,0,0,0,0,29,0,37,0,0,0,0,11,0,0,0,0,0,28,0,35,32,0,0,20,29,0,0,0,42
6,6583,4,,0,3,   boost,84.34,86414,1322.51,0.95,     NaN,33.7,4,3.99,4,0,0,0,64.27,64.39,0,0,0,0,    NaN,4.02,0,0,0,0,1,1,9,32.9395158,-106.9122654,1390,2024,6,21,22,56,49,0,0,0,0,1.7,0.9,1.4,0,0,0,0,0,0,0,29,0,37,0,0,0,0,11,0,0,0,0,0,28,0,35,32,0,0,20,29,0,0,0,42
6,6583,4,,0,3,   boost,84.34,86414,1322.51,0.95,     NaN,33.7,4,3.99,4,0,0,0,64.27,64.39,0,0,0,0,    NaN,4.02,0,0,0,0,1,1,9,32.9395158,-106.9122654,1390,2024,6,21,22,56,49,0,0,0,0,1.7,0.9,1.4,0,0,0,0,0,0,0,29,0,37,0,0,0,0,11,0,0,0,0,0,28,0,35,32,0,0,20,29,0,0,0,42
6,6583,4,,0,3,   boost,84.34,86414,1322.51,0.95,     NaN,33.7,4,3.99,4,0,0,0,64.27,64.39,0,0,0,0,    NaN,4.02,0,0,0,0,1,1,9,32.9395158,-106.9122654,1390,2024,6,21,22,56,49,0,0,0,0,1.7,0.9,1.4,0,0,0,0,0,0,0,29,0,37,0,0,0,0,11,0,0,0,0,0,28,0,35,32,0,0,20,29,0,0,0,42
6,6583,4,,0,3,   boost,84.34,86414,1322.51,0.95,     NaN,33.7,4,3.99,4,0,0,0,64.27,64.39,0,0,0,0,    NaN,4.02,0,0,0,0,1,1,9,32.9395158,-106.9122654,1390,2024,6,21,22,56,49,0,0,0,0,1.7,0.9,1.4,0,0,0,0,0,0,0,29,0,37,0,0,0,0,11,0,0,0,0,0,28,0,35,32,0,0,20,29,0,0,0,42
6,6583,4,,0,3,   boost,84.34,86414,1322.51,0.95,     NaN,33.7,4,3.99,4,0,0,0,64.27,64.39,0,0,0,0,    NaN,4.02,0,0,0,0,1,1,9,32.9395158,-106.9122654,1390,2024,6,21,22,56,49,0,0,0,0,1.7,0.9,1.4,0,0,0,0,0,0,0,29,0,37,0,0,0,0,11,0,0,0,0,0,28,0,35,32,0,0,20,29,0,0,0,42
6,6583,4,,0.01,3,   boost,84.34,86419,1322.03,0.47,     NaN,33.7,4,3.99,4,0,0,0,64.27,64.39,0,0,0,0,    NaN,4.02,0,0,0,0,1,1,9,32.9395158,-106.9122654,1390,2024,6,21,22,56,49,0,0,0,0,1.7,0.9,1.4,0,0,0,0,0,0,0,29,0,37,0,0,0,0,11,0,0,0,0,0,28,0,35,32,0,0,20,29,0,0,0,42
6,6583,4,,0.01,3,   boost,84.34,86419,1322.03,0.47,     NaN,33.7,4,3.99,4,0,0,0,64.27,64.39,0,0,0,0,    NaN,4.02,0,0,0,0,1,1,9,32.9395158,-106.9122654,1390,2024,6,21,22,56,49,0,0,0,0,1.7,0.9,1.4,0,0,0,0,0,0,0,29,0,37,0,0,0,0,11,0,0,0,0,0,28,0,35,32,0,0,20,29,0,0,0,42
6,6583,4,,0.02,3,   boost,83.85,86437,1320.33,-1.23,     NaN,33.7,4,4,4,0,0,0,64.27,64.39,0,0,0,0,    NaN,4.01,0,0,0.03,0,1,1,9,32.9395158,-106.9122654,1390,2024,6,21,22,56,49,0,0,0,0,1.7,0.9,1.4,0,0,0,0,0,0,0,29,0,37,0,0,0,0,11,0,0,0,0,0,28,0,35,32,0,0,20,29,0,0,0,42
6,6583,4,,0.02,3,   boost,83.85,86437,1320.33,-1.23,     NaN,33.7,4,4,4,0,0,0,64.27,64.39,0,0,0,0,    NaN,4.01,0,0,0.03,0,1,1,9,32.9395158,-106.9122654,1390,2024,6,21,22,56,49,0,0,0,0,1.7,0.9,1.4,0,0,0,0,0,0,0,29,0,37,0,0,0,0,11,0,0,0,0,0,28,0,35,32,0,0,20,29,0,0,0,42
6,6583,4,,0.03,3,   boost,87.28,86404,1323.45,1.89,     NaN,33.7,4,4,4,0.03,0,0,64.33,64.46,0,0,0,0,    NaN,4.01,0,0,0.03,0,1,1,9,32.9395158,-106.9122654,1390,2024,6,21,22,56,49,0,0,0,0,1.7,0.9,1.4,0,0,0,0,0,0,0,29,0,37,0,0,0,0,11,0,0,0,0,0,28,0,35,32,0,0,20,29,0,0,0,42
6,6583,4,,0.04,3,   boost,84.83,86423,1321.65,0.09,     NaN,33.7,4,4,4,0.03,0,0,64.33,64.46,0,0,0,0,    NaN,4.01,0,0,0.03,0,1,1,9,32.9395158,-106.9122654,1390,2024,6,21,22,56,49,0,0,0,0,1.7,0.9,1.4,0,0,0,0,0,0,0,29,0,37,0,0,0,0,11,0,0,0,0,0,28,0,35,32,0,0,20,29,0,0,0,42
6,6583,4,,0.05,3,   boost,80.41,86405,1323.36,1.8,     NaN,33.7,4,4,4,0.03,0,0,64.33,64.46,0,0,0,0,    NaN,4.01,0,0,0.03,0,1,1,9,32.9395158,-106.9122654,1390,2024,6,21,22,56,49,0,0,0,0,1.7,0.9,1.4,0,0,0,0,0,0,0,29,0,37,0,0,0,0,11,0,0,0,0,0,28,0,35,32,0,0,20,29,0,0,0,42
6,6583,4,,0.06,3,   boost,83.36,86411,1322.79,1.23,     NaN,33.6,4,4,4,0.03,0,0,64.33,64.46,0,0,0,0,    NaN,4.01,0,0,0.03,0,1,1,9,32.9395167,-106.9122671,1390,2024,6,21,22,56,50,0,0,302,0,1.7,0.9,1.4,0,0,0,0,0,0,0,29,0,37,0,0,0,0,10,0,0,0,0,0,28,0,35,33,0,0,20,29,0,0,0,41
6,6583,4,,0.06,3,   boost,83.36,86411,1322.79,1.23,     NaN,33.6,4,4,4,0.03,0,0,64.33,64.46,0,0,0,0,    NaN,4.01,0,0,0.03,0,1,1,9,32.9395167,-106.9122671,1390,2024,6,21,22,56,50,0,0,302,0,1.7,0.9,1.4,0,0,0,0,0,0,0,29,0,37,0,0,0,0,10,0,0,0,0,0,28,0,35,33,0,0,20,29,0,0,0,41
6,6583,4,,0.06,3,   boost,83.36,86411,1322.79,1.23,     NaN,33.6,4,4,4,0.03,0,0,64.33,64.46,0,0,0,0,    NaN,4.01,0,0,0.03,0,1,1,9,32.9395167,-106.9122671,1390,2024,6,21,22,56,50,0,0,302,0,1.7,0.9,1.4,0,0,0,0,0,0,0,29,0,37,0,0,0,0,10,0,0,0,0,0,28,0,35,33,0,0,20,29,0,0,0,41
6,6583,4,,0.07,3,   boost,83.36,86416,1322.32,0.76,     NaN,33.6,4,4,4,0.03,0,0,64.33,64.46,0,0,0,0,    NaN,4.01,0,0,0.03,0,1,1,9,32.9395167,-106.9122671,1390,2024,6,21,22,56,50,0,0,302,0,1.7,0.9,1.4,0,0,0,0,0,0,0,29,0,37,0,0,0,0,10,0,0,0,0,0,28,0,35,33,0,0,20,29,0,0,0,41
6,6583,4,,0.08,3,   boost,83.36,86403,1323.55,1.99,     NaN,33.6,4,4,4,0.03,0,0,64.33,64.46,0,0,0,0,    NaN,4.01,0,0,0.03,0,1,1,9,32.9395167,-106.9122671,1390,2024,6,21,22,56,50,0,0,302,0,1.7,0.9,1.4,0,0,0,0,0,0,0,29,0,37,0,0,0,0,10,0,0,0,0,0,28,0,35,33,0,0,20,29,0,0,0,41
6,6583,4,,0.09,3,   boost,83.36,86430,1320.99,-0.57,     NaN,33.6,4,4,4,0.03,0,0,64.33,64.46,0,0,0,0,    NaN,4.01,0,0,0.03,0,1,1,9,32.9395167,-106.9122671,1390,2024,6,21,22,56,50,0,0,302,0,1.7,0.9,1.4,0,0,0,0,0,0,0,29,0,37,0,0,0,0,10,0,0,0,0,0,28,0,35,33,0,0,20,29,0,0,0,41
6,6583,4,,0.1,3,   boost,83.85,86440,1320.05,-1.51,     NaN,33.7,4,4,4,0.03,0,0,64.33,64.46,0,0,0,0,    NaN,4.01,0,0,0.03,0,1,1,9,32.9395167,-106.9122671,1390,2024,6,21,22,56,50,0,0,302,0,1.7,0.9,1.4,0,0,0,0,0,0,0,29,0,37,0,0,0,0,10,0,0,0,0,0,28,0,35,33,0,0,20,29,0,0,0,41
6,6583,4,,0.11,3,   boost,87.28,86383,1325.44,3.88,     NaN,33.7,4,4,4,0.03,0,0,64.33,64.46,0,0,0,0,    NaN,4.01,0,0,0.03,0,1,1,9,32.9395167,-106.9122671,1390,2024,6,21,22,56,50,0,0,302,0,1.7,0.9,1.4,0,0,0,0,0,0,0,29,0,37,0,0,0,0,10,0,0,0,0,0,28,0,35,33,0,0,20,29,0,0,0,41
6,6583,4,,0.12,3,   boost,85.81,86395,1324.31,2.75,     NaN,33.7,4,4,4,0.03,0,0,64.33,64.46,0,0,0,0,    NaN,4.01,0,0,0.03,0,1,1,9,32.9395167,-106.9122671,1390,2024,6,21,22,56,50,0,0,302,0,1.7,0.9,1.4,0,0,0,0,0,0,0,29,0,37,0,0,0,0,10,0,0,0,0,0,28,0,35,33,0,0,20,29,0,0,0,41
6,6583,4,,0.13,3,   boost,85.32,86404,1323.45,1.89,     NaN,33.6,4,4,4,0.03,0,0,64.33,64.46,0,0,0,0,    NaN,4.01,0,0,0.03,0,1,1,9,32.9395167,-106.9122671,1390,2024,6,21,22,56,50,0,0,302,0,1.7,0.9,1.4,0,0,0,0,0,0,0,29,0,37,0,0,0,0,10,0,0,0,0,0,28,0,35,33,0,0,20,29,0,0,0,41
6,6583,4,,0.14,3,   boost,87.77,86382,1325.54,3.98,     NaN,33.7,4,4,4,0.03,0,0,64.33,64.46,0,0,0,0,    NaN,4.01,0,0,0.03,0,1,1,9,32.9395167,-106.9122671,1390,2024,6,21,22,56,50,0,0,302,0,1.7,0.9,1.4,0,0,0,0,0,0,0,29,0,37,0,0,0,0,10,0,0,0,0,0,28,0,35,33,0,0,20,29,0,0,0,41
6,6583,4,,0.15,3,   boost,85.81,86355,1328.1,6.54,     NaN,33.7,4,4,4,0.03,0,0,64.33,64.46,0,0,0,0,    NaN,4.01,0,0,0.03,0,1,1,9,32.9395167,-106.9122671,1390,2024,6,21,22,56,50,0,0,302,0,1.7,0.9,1.4,0,0,0,0,0,0,0,29,0,37,0,0,0,0,10,0,0,0,0,0,28,0,35,33,0,0,20,29,0,0,0,41
6,6583,4,,0.16,3,   boost,85.81,86390,1324.78,3.22,     NaN,33.7,4,4,4,0.03,0,0,64.33,64.46,0,0,0,0,    NaN,4.01,0,0,0.03,0,1,1,9,32.9395167,-106.9122671,1390,2024,6,21,22,56,50,0,0,302,0,1.7,0.9,1.4,0,0,0,0,0,0,0,29,0,37,0,0,0,0,10,0,0,0,0,0,28,0,35,33,0,0,20,29,0,0,0,41
6,6583,4,,0.17,3,   boost,83.85,86448,1319.29,-2.27,     NaN,33.7,4,4,4,0.03,0,0,64.33,64.46,0,0,0,0,    NaN,4.01,0,0,0.03,0,1,1,9,32.9395167,-106.9122671,1390,2024,6,21,22,56,50,0,0,302,0,1.7,0.9,1.4,0,0,0,0,0,0,0,29,0,37,0,0,0,0,10,0,0,0,0,0,28,0,35,33,0,0,20,29,0,0,0,41
6,6583,4,,0.18,3,   boost,84.34,86377,1326.01,4.45,     NaN,33.7,4,4,4,0.03,0,0,64.33,64.46,0,0,0,0,    NaN,4.01,0,0,0.03,0,1,1,9,32.9395167,-106.9122671,1390,2024,6,21,22,56,50,0,0,302,0,1.7,0.9,1.4,0,0,0,0,0,0,0,29,0,37,0,0,0,0,10,0,0,0,0,0,28,0,35,33,0,0,20,29,0,0,0,41
6,6583,4,,0.19,3,   boost,90.71,86428,1321.18,-0.38,     NaN,33.7,4,4,4,0.03,0,0,64.33,64.46,0,0,0,0,    NaN,4.01,0,0,0.03,0,1,1,9,32.9395167,-106.9122671,1390,2024,6,21,22,56,50,0,0,302,0,1.7,0.9,1.4,0,0,0,0,0,0,0,29,0,37,0,0,0,0,10,0,0,0,0,0,28,0,35,33,0,0,20,29,0,0,0,41
6,6583,4,,0.2,3,   boost,88.26,86395,1324.31,2.75,     NaN,33.7,4,4,4,0.03,0,0,64.33,64.46,0,0,0,0,    NaN,4.01,0,0,0.03,0,1,1,9,32.9395167,-106.9122671,1390,2024,6,21,22,56,50,0,0,302,0,1.7,0.9,1.4,0,0,0,0,0,0,0,29,0,37,0,0,0,0,10,0,0,0,0,0,28,0,35,33,0,0,20,29,0,0,0,41
6,6583,4,,0.21,3,   boost,91.2,86409,1322.98,1.42,     NaN,33.7,4,4,4,0.03,0,0,64.33,64.46,0,0,0,0,    NaN,4.01,0,0,0.03,0,1,1,9,32.9395167,-106.9122671,1390,2024,6,21,22,56,50,0,0,302,0,1.7,0.9,1.4,0,0,0,0,0,0,0,29,0,37,0,0,0,0,10,0,0,0,0,0,28,0,35,33,0,0,20,29,0,0,0,41
6,6583,4,,0.22,3,   boost,86.79,86396,1324.21,2.65,     NaN,33.7,4,4,4,0.03,0,0,64.33,64.46,0,0,0,0,    NaN,4.01,0,0,0.03,0,1,1,9,32.9395167,-106.9122671,1390,2024,6,21,22,56,50,0,0,302,0,1.7,0.9,1.4,0,0,0,0,0,0,0,29,0,37,0,0,0,0,10,0,0,0,0,0,28,0,35,33,0,0,20,29,0,0,0,41
6,6583,4,,0.23,3,   boost,88.75,86386,1325.16,3.6,     NaN,33.7,4,4,4,0.03,0,0,64.33,64.46,0,0,0,0,    NaN,4.01,0,0,0.03,0,1,1,9,32.9395167,-106.9122671,1390,2024,6,21,22,56,50,0,0,302,0,1.7,0.9,1.4,0,0,0,0,0,0,0,29,0,37,0,0,0,0,10,0,0,0,0,0,28,0,35,33,0,0,20,29,0,0,0,41
6,6583,4,,0.24,3,   boost,88.26,86358,1327.81,6.25,     NaN,33.7,4,4,4,0.03,0,0,64.33,64.46,0,0,0,0,    NaN,4.01,0,0,0.03,0,1,1,9,32.9395167,-106.9122671,1390,2024,6,21,22,56,50,0,0,302,0,1.7,0.9,1.4,0,0,0,0,0,0,0,29,0,37,0,0,0,0,10,0,0,0,0,0,28,0,35,33,0,0,20,29,0,0,0,41
6,6583,4,,0.25,3,   boost,89.73,86324,1331.03,9.47,     NaN,33.7,4,4,4,0.03,0,0,64.33,64.46,0,0,0,0,    NaN,4.01,0,0,0.03,0,1,1,9,32.9395167,-106.9122671,1390,2024,6,21,22,56,50,0,0,302,0,1.7,0.9,1.4,0,0,0,0,0,0,0,29,0,37,0,0,0,0,10,0,0,0,0,0,28,0,35,33,0,0,20,29,0,0,0,41
6,6583,4,,0.26,3,   boost,86.79,86385,1325.25,3.69,     NaN,33.7,4,4,4,0.03,0,0,64.33,64.46,0,0,0,0,    NaN,4.01,0,0,0.03,0,1,1,9,32.9395167,-106.9122671,1390,2024,6,21,22,56,50,0,0,302,0,1.7,0.9,1.4,0,0,0,0,0,0,0,29,0,37,0,0,0,0,10,0,0,0,0,0,28,0,35,33,0,0,20,29,0,0,0,41
6,6583,4,,0.27,3,   boost,89.24,86362,1327.43,5.87,     NaN,33.7,4,4,4,0.03,0,0,64.33,64.46,0,0,0,0,    NaN,4.01,0,0,0.03,0,1,1,9,32.9395167,-106.9122671,1390,2024,6,21,22,56,50,0,0,302,0,1.7,0.9,1.4,0,0,0,0,0,0,0,29,0,37,0,0,0,0,10,0,0,0,0,0,28,0,35,33,0,0,20,29,0,0,0,41
6,6583,4,,0.28,3,   boost,89.24,86369,1326.77,5.21,     NaN,33.7,4,4,4,0.03,0,0,64.33,64.46,0,0,0,0,    NaN,4.01,0,0,0.03,0,1,1,9,32.9395167,-106.9122671,1390,2024,6,21,22,56,50,0,0,302,0,1.7,0.9,1.4,0,0,0,0,0,0,0,29,0,37,0,0,0,0,10,0,0,0,0,0,28,0,35,33,0,0,20,29,0,0,0,41
6,6583,4,,0.29,3,   boost,90.71,86339,1329.61,8.05,     NaN,33.6,4,4,4,0.03,0,0,64.33,64.46,0,0,0,0,    NaN,4.01,0,0,0.03,0,1,1,9,32.9395167,-106.9122671,1390,2024,6,21,22,56,50,0,0,302,0,1.7,0.9,1.4,0,0,0,0,0,0,0,29,0,37,0,0,0,0,10,0,0,0,0,0,28,0,35,33,0,0,20,29,0,0,0,41
6,6583,4,,0.3,3,   boost,91.2,86331,1330.37,8.81,     NaN,33.7,4,4,4,0.03,0,0,64.33,64.46,0,0,0,0,    NaN,4.01,0,0,0.03,0,1,1,9,32.9395167,-106.9122671,1390,2024,6,21,22,56,50,0,0,302,0,1.7,0.9,1.4,0,0,0,0,0,0,0,29,0,37,0,0,0,0,10,0,0,0,0,0,28,0,35,33,0,0,20,29,0,0,0,41
6,6583,4,,0.31,3,   boost,86.79,86347,1328.85,7.29,     NaN,33.7,4,4,4,0.03,0,0,64.33,64.46,0,0,0,0,    NaN,4.01,0,0,0.03,0,1,1,9,32.9395167,-106.9122671,1390,2024,6,21,22,56,50,0,0,302,0,1.7,0.9,1.4,0,0,0,0,0,0,0,29,0,37,0,0,0,0,10,0,0,0,0,0,28,0,35,33,0,0,20,29,0,0,0,41
6,6583,4,,0.32,3,   boost,88.75,86344,1329.14,7.58,     NaN,33.7,4,4,4,0.03,0,0,64.33,64.46,0,0,0,0,    NaN,4.01,0,0,0.03,0,1,1,9,32.9395167,-106.9122671,1390,2024,6,21,22,56,50,0,0,302,0,1.7,0.9,1.4,0,0,0,0,0,0,0,29,0,37,0,0,0,0,10,0,0,0,0,0,28,0,35,33,0,0,20,29,0,0,0,41
6,6583,4,,0.33,3,   boost,91.69,86332,1330.27,8.71,     NaN,33.7,4,4,4,0.03,0,0,64.33,64.46,0,0,0,0,    NaN,4.01,0,0,0.03,0,1,1,9,32.9395167,-106.9122671,1390,2024,6,21,22,56,50,0,0,302,0,1.7,0.9,1.4,0,0,0,0,0,0,0,29,0,37,0,0,0,0,10,0,0,0,0,0,28,0,35,33,0,0,20,29,0,0,0,41
6,6583,4,,0.34,3,   boost,91.69,86336,1329.9,8.34,     NaN,33.7,4,3.99,3.99,0.03,0,0,64.33,64.46,0,0,0,0,    NaN,4.01,0,0,0,0,1,1,9,32.9395167,-106.9122671,1390,2024,6,21,22,56,50,0,0,302,0,1.7,0.9,1.4,0,0,0,0,0,0,0,29,0,37,0,0,0,0,10,0,0,0,0,0,28,0,35,33,0,0,20,29,0,0,0,41
6,6583,4,,0.34,3,   boost,91.69,86336,1329.9,8.34,     NaN,33.7,4,3.99,3.99,0.03,0,0,64.33,64.46,0,0,0,0,    NaN,4.01,0,0,0,0,1,1,9,32.9395167,-106.9122671,1390,2024,6,21,22,56,50,0,0,302,0,1.7,0.9,1.4,0,0,0,0,0,0,0,29,0,37,0,0,0,0,10,0,0,0,0,0,28,0,35,33,0,0,20,29,0,0,0,41
6,6583,4,,0.35,3,   boost,91.2,86309,1332.45,10.89,     NaN,33.7,4,3.99,3.99,0,0,0,64.21,64.39,0,0,0,0,    NaN,4.01,0,0,0,0,1,1,9,32.9395167,-106.9122671,1390,2024,6,21,22,56,50,0,0,302,0,1.7,0.9,1.4,0,0,0,0,0,0,0,29,0,37,0,0,0,0,10,0,0,0,0,0,28,0,35,33,0,0,20,29,0,0,0,41
6,6583,4,,0.36,3,   boost,92.67,86295,1333.78,12.22,     NaN,33.7,4,3.99,3.99,0,0,0,64.21,64.39,0,0,0,0,    NaN,4.01,0,0,0,0,1,1,9,32.9395167,-106.9122671,1390,2024,6,21,22,56,50,0,0,302,0,1.7,0.9,1.4,0,0,0,0,0,0,0,29,0,37,0,0,0,0,10,0,0,0,0,0,28,0,35,33,0,0,20,29,0,0,0,41
6,6583,4,,0.37,3,   boost,91.69,86303,1333.02,11.46,     NaN,33.7,4,3.99,3.99,0,0,0,64.21,64.39,0,0,0,0,    NaN,4.01,0,0,0,0,1,1,9,32.9395167,-106.9122671,1390,2024,6,21,22,56,50,0,0,302,0,1.7,0.9,1.4,0,0,0,0,0,0,0,29,0,37,0,0,0,0,10,0,0,0,0,0,28,0,35,33,0,0,20,29,0,0,0,41
6,6583,4,,0.38,3,   boost,91.2,86291,1334.16,12.6,     NaN,33.7,4,3.99,3.99,0,0,0,64.21,64.39,0,0,0,0,    NaN,4.01,0,0,0,0,1,1,9,32.9395167,-106.9122671,1390,2024,6,21,22,56,50,0,0,302,0,1.7,0.9,1.4,0,0,0,0,0,0,0,29,0,37,0,0,0,0,10,0,0,0,0,0,28,0,35,33,0,0,20,29,0,0,0,41
6,6583,4,,0.39,3,   boost,94.14,86303,1333.02,11.46,     NaN,33.7,4,3.99,3.99,0,0,0,64.21,64.39,0,0,0,0,    NaN,4.01,0,0,0,0,1,1,9,32.9395167,-106.9122671,1390,2024,6,21,22,56,50,0,0,302,0,1.7,0.9,1.4,0,0,0,0,0,0,0,29,0,37,0,0,0,0,10,0,0,0,0,0,28,0,35,33,0,0,20,29,0,0,0,41
6,6583,4,,0.4,3,   boost,91.69,86284,1334.82,13.26,     NaN,33.7,4,3.99,3.99,0,0,0,64.21,64.39,0,0,0,0,    NaN,4.01,0,0,0,0,1,1,9,32.9395167,-106.9122671,1390,2024,6,21,22,56,50,0,0,302,0,1.7,0.9,1.4,0,0,0,0,0,0,0,29,0,37,0,0,0,0,10,0,0,0,0,0,28,0,35,33,0,0,20,29,0,0,0,41
6,6583,4,,0.41,3,   boost,89.24,86278,1335.39,13.83,     NaN,33.7,4,3.99,3.99,0,0,0,64.21,64.39,0,0,0,0,    NaN,4.01,0,0,0,0,1,1,9,32.9395167,-106.9122671,1390,2024,6,21,22,56,50,0,0,302,0,1.7,0.9,1.4,0,0,0,0,0,0,0,29,0,37,0,0,0,0,10,0,0,0,0,0,28,0,35,33,0,0,20,29,0,0,0,41
6,6583,4,,0.42,3,   boost,93.16,86279,1335.3,13.74,     NaN,33.7,4,3.99,3.99,0,0,0,64.21,64.39,0,0,0,0,    NaN,4.01,0,0,0,0,1,1,9,32.9395167,-106.9122671,1390,2024,6,21,22,56,50,0,0,302,0,1.7,0.9,1.4,0,0,0,0,0,0,0,29,0,37,0,0,0,0,10,0,0,0,0,0,28,0,35,33,0,0,20,29,0,0,0,41
6,6583,4,,0.43,3,   boost,95.12,86273,1335.87,14.31,     NaN,33.7,4,3.99,3.99,0,0,0,64.21,64.39,0,0,0,0,    NaN,4.01,0,0,0,0,1,1,9,32.9395167,-106.9122671,1390,2024,6,21,22,56,50,0,0,302,0,1.7,0.9,1.4,0,0,0,0,0,0,0,29,0,37,0,0,0,0,10,0,0,0,0,0,28,0,35,33,0,0,20,29,0,0,0,41
6,6583,4,,0.44,3,   boost,91.2,86265,1336.63,15.07,     NaN,33.7,4,3.99,3.99,0,0,0,64.21,64.39,0,0,0,0,    NaN,4.01,0,0,0,0,1,1,9,32.9395167,-106.9122671,1390,2024,6,21,22,56,50,0,0,302,0,1.7,0.9,1.4,0,0,0,0,0,0,0,29,0,37,0,0,0,0,10,0,0,0,0,0,28,0,35,33,0,0,20,29,0,0,0,41
6,6583,4,,0.45,3,   boost,94.14,86258,1337.29,15.73,     NaN,33.7,4,3.99,3.99,0,0,0,64.21,64.39,0,0,0,0,    NaN,4.01,0,0,0,0,1,1,9,32.9395167,-106.9122671,1390,2024,6,21,22,56,50,0,0,302,0,1.7,0.9,1.4,0,0,0,0,0,0,0,29,0,37,0,0,0,0,10,0,0,0,0,0,28,0,35,33,0,0,20,29,0,0,0,41
6,6583,4,,0.46,3,   boost,93.65,86270,1336.15,14.59,     NaN,33.7,4,3.99,3.99,0,0,0,64.21,64.39,0,0,0,0,    NaN,4.01,0,0,0,0,1,1,9,32.9395167,-106.9122671,1390,2024,6,21,22,56,50,0,0,302,0,1.7,0.9,1.4,0,0,0,0,0,0,0,29,0,37,0,0,0,0,10,0,0,0,0,0,28,0,35,33,0,0,20,29,0,0,0,41
6,6583,4,,0.47,3,   boost,95.61,86255,1337.57,16.01,     NaN,33.6,4,3.99,3.99,0,0,0,64.21,64.39,0,0,0,0,    NaN,4.01,0,0,0,0,1,1,9,32.9395167,-106.9122671,1390,2024,6,21,22,56,50,0,0,302,0,1.7,0.9,1.4,0,0,0,0,0,0,0,29,0,37,0,0,0,0,10,0,0,0,0,0,28,0,35,33,0,0,20,29,0,0,0,41
6,6583,4,,0.48,3,   boost,95.61,86259,1337.2,15.64,     NaN,33.7,4,3.99,3.99,0,0,0,64.21,64.39,0,0,0,0,    NaN,4.01,0,0,0,0,1,1,9,32.9395167,-106.9122671,1390,2024,6,21,22,56,50,0,0,302,0,1.7,0.9,1.4,0,0,0,0,0,0,0,29,0,37,0,0,0,0,10,0,0,0,0,0,28,0,35,33,0,0,20,29,0,0,0,41
6,6583,4,,0.49,3,   boost,94.14,86243,1338.71,17.15,     NaN,33.7,4,3.99,3.99,0,0,0,64.21,64.39,0,0,0,0,    NaN,4.01,0,0,0,0,1,1,9,32.9395167,-106.9122671,1390,2024,6,21,22,56,50,0,0,302,0,1.7,0.9,1.4,0,0,0,0,0,0,0,29,0,37,0,0,0,0,10,0,0,0,0,0,28,0,35,33,0,0,20,29,0,0,0,41
6,6583,4,,0.5,3,   boost,92.18,86245,1338.52,16.96,     NaN,33.7,4,3.99,3.99,0,0,0,64.21,64.39,0,0,0,0,    NaN,4.01,0,0,0,0,1,1,9,32.9395167,-106.9122671,1390,2024,6,21,22,56,50,0,0,302,0,1.7,0.9,1.4,0,0,0,0,0,0,0,29,0,37,0,0,0,0,10,0,0,0,0,0,28,0,35,33,0,0,20,29,0,0,0,41
6,6583,4,,0.51,3,   boost,94.14,86231,1339.85,18.29,     NaN,33.7,4,3.99,3.99,0,0,0,64.21,64.39,0,0,0,0,    NaN,4.01,0,0,0,0,1,1,9,32.9395167,-106.9122671,1390,2024,6,21,22,56,50,0,0,302,0,1.7,0.9,1.4,0,0,0,0,0,0,0,29,0,37,0,0,0,0,10,0,0,0,0,0,28,0,35,33,0,0,20,29,0,0,0,41
6,6583,4,,0.52,3,   boost,93.16,86236,1339.38,17.82,     NaN,33.7,4,3.99,3.99,0,0,0,64.21,64.39,0,0,0,0,    NaN,4.01,0,0,0,0,1,1,9,32.9395167,-106.9122671,1390,2024,6,21,22,56,50,0,0,302,0,1.7,0.9,1.4,0,0,0,0,0,0,0,29,0,37,0,0,0,0,10,0,0,0,0,0,28,0,35,33,0,0,20,29,0,0,0,41
6,6583,4,,0.53,3,   boost,94.63,86233,1339.66,18.1,     NaN,33.7,4,3.99,3.99,0,0,0,64.21,64.39,0,0,0,0,    NaN,4.01,0,0,0,0,1,1,9,32.9395167,-106.9122671,1390,2024,6,21,22,56,50,0,0,302,0,1.7,0.9,1.4,0,0,0,0,0,0,0,29,0,37,0,0,0,0,10,0,0,0,0,0,28,0,35,33,0,0,20,29,0,0,0,41
6,6583,4,,0.54,3,   boost,91.69,86224,1340.51,18.95,     NaN,33.7,4,3.99,3.99,0,0,0,64.21,64.39,0,0,0,0,    NaN,4.01,0,0,0,0,1,1,9,32.9395167,-106.9122671,1390,2024,6,21,22,56,50,0,0,302,0,1.7,0.9,1.4,0,0,0,0,0,0,0,29,0,37,0,0,0,0,10,0,0,0,0,0,28,0,35,33,0,0,20,29,0,0,0,41
6,6583,4,,0.55,3,   boost,95.12,86214,1341.46,19.9,     NaN,33.7,4,3.99,3.99,0,0,0,64.21,64.39,0,0,0,0,    NaN,4.01,0,0,0,0,1,1,9,32.9395167,-106.9122671,1390,2024,6,21,22,56,50,0,0,302,0,1.7,0.9,1.4,0,0,0,0,0,0,0,29,0,37,0,0,0,0,10,0,0,0,0,0,28,0,35,33,0,0,20,29,0,0,0,41
6,6583,4,,0.56,3,   boost,95.61,86202,1342.6,21.04,     NaN,33.7,4,3.99,3.99,0,0,0,64.21,64.39,0,0,0,0,    NaN,4.01,0,0,0,0,1,1,9,32.9395167,-106.9122671,1390,2024,6,21,22,56,50,0,0,302,0,1.7,0.9,1.4,0,0,0,0,0,0,0,29,0,37,0,0,0,0,10,0,0,0,0,0,28,0,35,33,0,0,20,29,0,0,0,41
6,6583,4,,0.57,3,   boost,92.67,86204,1342.41,20.85,     NaN,33.7,4,3.99,3.99,0,0,0,64.21,64.39,0,0,0,0,    NaN,4.01,0,0,0,0,1,1,9,32.9395167,-106.9122671,1390,2024,6,21,22,56,50,0,0,302,0,1.7,0.9,1.4,0,0,0,0,0,0,0,29,0,37,0,0,0,0,10,0,0,0,0,0,28,0,35,33,0,0,20,29,0,0,0,41
6,6583,4,,0.58,3,   boost,95.12,86180,1344.69,23.13,     NaN,33.6,4,3.99,3.99,0,0,0,64.21,64.39,0,0,0,0,    NaN,4.01,0,0,0,0,1,1,9,32.9395167,-106.9122671,1390,2024,6,21,22,56,50,0,0,302,0,1.7,0.9,1.4,0,0,0,0,0,0,0,29,0,37,0,0,0,0,10,0,0,0,0,0,28,0,35,33,0,0,20,29,0,0,0,41
6,6583,4,,0.59,3,   boost,94.63,86199,1342.89,21.33,     NaN,33.7,4,3.99,3.99,0,0,0,64.21,64.39,0,0,0,0,    NaN,4.01,0,0,0,0,1,1,9,32.9395167,-106.9122671,1390,2024,6,21,22,56,50,0,0,302,0,1.7,0.9,1.4,0,0,0,0,0,0,0,29,0,37,0,0,0,0,10,0,0,0,0,0,28,0,35,33,0,0,20,29,0,0,0,41
6,6583,4,,0.6,3,   boost,93.16,86189,1343.84,22.28,     NaN,33.7,4,3.99,3.99,0,0,0,64.21,64.39,0,0,0,0,    NaN,4.01,0,0,0,0,1,1,9,32.9395167,-106.9122671,1390,2024,6,21,22,56,50,0,0,302,0,1.7,0.9,1.4,0,0,0,0,0,0,0,29,0,37,0,0,0,0,10,0,0,0,0,0,28,0,35,33,0,0,20,29,0,0,0,41
6,6583,4,,0.61,3,   boost,92.67,86188,1343.93,22.37,     NaN,33.7,4,3.99,3.99,0,0,0,64.21,64.39,0,0,0,0,    NaN,4.01,0,0,0,0,1,1,9,32.9395167,-106.9122671,1390,2024,6,21,22,56,50,0,0,302,0,1.7,0.9,1.4,0,0,0,0,0,0,0,29,0,37,0,0,0,0,10,0,0,0,0,0,28,0,35,33,0,0,20,29,0,0,0,41
6,6583,4,,0.62,3,   boost,95.12,86173,1345.35,23.79,     NaN,33.7,4,3.99,3.99,0,0,0,64.21,64.39,0,0,0,0,    NaN,4.01,0,0,0,0,1,1,9,32.9395167,-106.9122671,1390,2024,6,21,22,56,50,0,0,302,0,1.7,0.9,1.4,0,0,0,0,0,0,0,29,0,37,0,0,0,0,10,0,0,0,0,0,28,0,35,33,0,0,20,29,0,0,0,41
6,6583,4,,0.63,3,   boost,94.14,86167,1345.92,24.36,     NaN,33.6,4,3.99,3.99,0,0,0,64.21,64.39,0,0,0,0,    NaN,4.01,0,0,0,0,1,1,9,32.9395167,-106.9122671,1390,2024,6,21,22,56,50,0,0,302,0,1.7,0.9,1.4,0,0,0,0,0,0,0,29,0,37,0,0,0,0,10,0,0,0,0,0,28,0,35,33,0,0,20,29,0,0,0,41
6,6583,4,,0.64,3,   boost,98.07,86174,1345.26,23.7,     NaN,33.7,4,3.99,3.99,0,0,0,64.21,64.39,0,0,0,0,    NaN,4.01,0,0,0,0,1,1,9,32.9395167,-106.9122671,1390,2024,6,21,22,56,50,0,0,302,0,1.7,0.9,1.4,0,0,0,0,0,0,0,29,0,37,0,0,0,0,10,0,0,0,0,0,28,0,35,33,0,0,20,29,0,0,0,41
6,6583,4,,0.65,3,   boost,95.61,86164,1346.21,24.65,     NaN,33.7,4,3.99,3.99,0,0,0,64.21,64.39,0,0,0,0,    NaN,4.01,0,0,0,0,1,1,9,32.9395167,-106.9122671,1390,2024,6,21,22,56,50,0,0,302,0,1.7,0.9,1.4,0,0,0,0,0,0,0,29,0,37,0,0,0,0,10,0,0,0,0,0,28,0,35,33,0,0,20,29,0,0,0,41
6,6583,4,,0.66,3,   boost,96.11,86153,1347.25,25.69,     NaN,33.6,4,3.98,4,0,0,0,64.21,64.39,0,0,0,0,    NaN,4,0,0,0.03,0,1,1,9,32.9395167,-106.9122671,1390,2024,6,21,22,56,50,0,0,302,0,1.7,0.9,1.4,0,0,0,0,0,0,0,29,0,37,0,0,0,0,10,0,0,0,0,0,28,0,35,33,0,0,20,29,0,0,0,41
6,6583,4,,0.66,3,   boost,96.11,86153,1347.25,25.69,     NaN,33.6,4,3.98,4,0,0,0,64.21,64.39,0,0,0,0,    NaN,4,0,0,0.03,0,1,1,9,32.9395167,-106.9122671,1390,2024,6,21,22,56,50,0,0,302,0,1.7,0.9,1.4,0,0,0,0,0,0,0,29,0,37,0,0,0,0,10,0,0,0,0,0,28,0,35,33,0,0,20,29,0,0,0,41
6,6583,4,,0.67,3,   boost,92.18,86158,1346.78,25.22,     NaN,33.7,4,3.98,4,0.03,0,0,64.15,64.39,0,0,0,0,    NaN,4,0,0,0.03,0,1,1,9,32.9395167,-106.9122671,1390,2024,6,21,22,56,50,0,0,302,0,1.7,0.9,1.4,0,0,0,0,0,0,0,29,0,37,0,0,0,0,10,0,0,0,0,0,28,0,35,33,0,0,20,29,0,0,0,41
6,6583,4,,0.68,3,   boost,94.63,86141,1348.39,26.83,     NaN,33.7,4,3.98,4,0.03,0,0,64.15,64.39,0,0,0,0,    NaN,4,0,0,0.03,0,1,1,9,32.9395167,-106.9122671,1390,2024,6,21,22,56,50,0,0,302,0,1.7,0.9,1.4,0,0,0,0,0,0,0,29,0,37,0,0,0,0,10,0,0,0,0,0,28,0,35,33,0,0,20,29,0,0,0,41
6,6583,4,,0.69,3,   boost,97.09,86128,1349.63,28.07,     NaN,33.7,4,3.98,4,0.03,0,0,64.15,64.39,0,0,0,0,    NaN,4,0,0,0.03,0,1,1,9,32.9395167,-106.9122671,1390,2024,6,21,22,56,50,0,0,302,0,1.7,0.9,1.4,0,0,0,0,0,0,0,29,0,37,0,0,0,0,10,0,0,0,0,0,28,0,35,33,0,0,20,29,0,0,0,41
6,6583,4,,0.7,3,   boost,97.58,86130,1349.44,27.88,     NaN,33.7,4,3.98,4,0.03,0,0,64.15,64.39,0,0,0,0,    NaN,4,0,0,0.03,0,1,1,9,32.9395167,-106.9122671,1390,2024,6,21,22,56,50,0,0,302,0,1.7,0.9,1.4,0,0,0,0,0,0,0,29,0,37,0,0,0,0,10,0,0,0,0,0,28,0,35,33,0,0,20,29,0,0,0,41
6,6583,4,,0.71,3,   boost,96.6,86119,1350.48,28.92,     NaN,33.7,4,3.98,4,0.03,0,0,64.15,64.39,0,0,0,0,    NaN,4,0,0,0.03,0,1,1,9,32.9395167,-106.9122671,1390,2024,6,21,22,56,50,0,0,302,0,1.7,0.9,1.4,0,0,0,0,0,0,0,29,0,37,0,0,0,0,10,0,0,0,0,0,28,0,35,33,0,0,20,29,0,0,0,41
6,6583,4,,0.72,3,   boost,96.11,86119,1350.48,28.92,     NaN,33.7,4,3.98,4,0.03,0,0,64.15,64.39,0,0,0,0,    NaN,4,0,0,0.03,0,1,1,9,32.9395167,-106.9122671,1390,2024,6,21,22,56,50,0,0,302,0,1.7,0.9,1.4,0,0,0,0,0,0,0,29,0,37,0,0,0,0,10,0,0,0,0,0,28,0,35,33,0,0,20,29,0,0,0,41
6,6583,4,,0.73,3,   boost,98.07,86110,1351.33,29.77,     NaN,33.7,4,3.98,4,0.03,0,0,64.15,64.39,0,0,0,0,    NaN,4,0,0,0.03,0,1,1,9,32.9395167,-106.9122671,1390,2024,6,21,22,56,50,0,0,302,0,1.7,0.9,1.4,0,0,0,0,0,0,0,29,0,37,0,0,0,0,10,0,0,0,0,0,28,0,35,33,0,0,20,29,0,0,0,41
6,6583,4,,0.74,3,   boost,95.61,86102,1352.09,30.53,     NaN,33.7,4,3.98,4,0.03,0,0,64.15,64.39,0,0,0,0,    NaN,4,0,0,0.03,0,1,1,9,32.9395167,-106.9122671,1390,2024,6,21,22,56,50,0,0,302,0,1.7,0.9,1.4,0,0,0,0,0,0,0,29,0,37,0,0,0,0,10,0,0,0,0,0,28,0,35,33,0,0,20,29,0,0,0,41
6,6583,4,,0.75,3,   boost,95.61,86092,1353.04,31.48,     NaN,33.7,4,3.98,4,0.03,0,0,64.15,64.39,0,0,0,0,    NaN,4,0,0,0.03,0,1,1,9,32.9395167,-106.9122671,1390,2024,6,21,22,56,50,0,0,302,0,1.7,0.9,1.4,0,0,0,0,0,0,0,29,0,37,0,0,0,0,10,0,0,0,0,0,28,0,35,33,0,0,20,29,0,0,0,41
6,6583,4,,0.76,3,   boost,95.61,86086,1353.61,32.05,     NaN,33.7,4,3.98,4,0.03,0,0,64.15,64.39,0,0,0,0,    NaN,4,0,0,0.03,0,1,1,9,32.9395167,-106.9122671,1390,2024,6,21,22,56,50,0,0,302,0,1.7,0.9,1.4,0,0,0,0,0,0,0,29,0,37,0,0,0,0,10,0,0,0,0,0,28,0,35,33,0,0,20,29,0,0,0,41
6,6583,4,,0.77,3,   boost,96.6,86081,1354.09,32.53,     NaN,33.7,4,3.98,4,0.03,0,0,64.15,64.39,0,0,0,0,    NaN,4,0,0,0.03,0,1,1,9,32.9395167,-106.9122671,1390,2024,6,21,22,56,50,0,0,302,0,1.7,0.9,1.4,0,0,0,0,0,0,0,29,0,37,0,0,0,0,10,0,0,0,0,0,28,0,35,33,0,0,20,29,0,0,0,41
6,6583,4,,0.78,3,   boost,100.03,86063,1355.8,34.24,     NaN,33.7,4,3.98,4,0.03,0,0,64.15,64.39,0,0,0,0,    NaN,4,0,0,0.03,0,1,1,9,32.9395167,-106.9122671,1390,2024,6,21,22,56,50,0,0,302,0,1.7,0.9,1.4,0,0,0,0,0,0,0,29,0,37,0,0,0,0,10,0,0,0,0,0,28,0,35,33,0,0,20,29,0,0,0,41
6,6583,4,,0.79,3,   boost,94.14,86050,1357.03,35.47,     NaN,33.7,4,3.98,4,0.03,0,0,64.15,64.39,0,0,0,0,    NaN,4,0,0,0.03,0,1,1,9,32.9395167,-106.9122671,1390,2024,6,21,22,56,50,0,0,302,0,1.7,0.9,1.4,0,0,0,0,0,0,0,29,0,37,0,0,0,0,10,0,0,0,0,0,28,0,35,33,0,0,20,29,0,0,0,41
6,6583,4,,0.8,3,   boost,98.56,86064,1355.7,34.14,     NaN,33.7,4,3.98,4,0.03,0,0,64.15,64.39,0,0,0,0,    NaN,4,0,0,0.03,0,1,1,9,32.9395167,-106.9122671,1390,2024,6,21,22,56,50,0,0,302,0,1.7,0.9,1.4,0,0,0,0,0,0,0,29,0,37,0,0,0,0,10,0,0,0,0,0,28,0,35,33,0,0,20,29,0,0,0,41
6,6583,4,,0.81,3,   boost,97.09,86053,1356.75,35.19,     NaN,33.7,4,3.98,4,0.03,0,0,64.15,64.39,0,0,0,0,    NaN,4,0,0,0.03,0,1,1,9,32.9395167,-106.9122671,1390,2024,6,21,22,56,50,0,0,302,0,1.7,0.9,1.4,0,0,0,0,0,0,0,29,0,37,0,0,0,0,10,0,0,0,0,0,28,0,35,33,0,0,20,29,0,0,0,41
6,6583,4,,0.82,3,   boost,96.11,86039,1358.08,36.52,     NaN,33.7,4,3.98,4,0.03,0,0,64.15,64.39,0,0,0,0,    NaN,4,0,0,0.03,0,1,1,9,32.9395167,-106.9122671,1390,2024,6,21,22,56,50,0,0,302,0,1.7,0.9,1.4,0,0,0,0,0,0,0,29,0,37,0,0,0,0,10,0,0,0,0,0,28,0,35,33,0,0,20,29,0,0,0,41
6,6583,4,,0.83,3,   boost,100.52,86032,1358.74,37.18,     NaN,33.7,4,3.98,4,0.03,0,0,64.15,64.39,0,0,0,0,    NaN,4,0,0,0.03,0,1,1,9,32.9395167,-106.9122671,1390,2024,6,21,22,56,50,0,0,302,0,1.7,0.9,1.4,0,0,0,0,0,0,0,29,0,37,0,0,0,0,10,0,0,0,0,0,28,0,35,33,0,0,20,29,0,0,0,41
6,6583,4,,0.84,3,   boost,100.52,86025,1359.41,37.85,     NaN,33.7,4,3.98,4,0.03,0,0,64.15,64.39,0,0,0,0,    NaN,4,0,0,0.03,0,1,1,9,32.9395167,-106.9122671,1390,2024,6,21,22,56,50,0,0,302,0,1.7,0.9,1.4,0,0,0,0,0,0,0,29,0,37,0,0,0,0,10,0,0,0,0,0,28,0,35,33,0,0,20,29,0,0,0,41
6,6583,4,,0.85,3,   boost,99.54,86008,1361.03,39.47,     NaN,33.7,4,3.98,4,0.03,0,0,64.15,64.39,0,0,0,0,    NaN,4,0,0,0.03,0,1,1,9,32.9395167,-106.9122671,1390,2024,6,21,22,56,50,0,0,302,0,1.7,0.9,1.4,0,0,0,0,0,0,0,29,0,37,0,0,0,0,10,0,0,0,0,0,28,0,35,33,0,0,20,29,0,0,0,41
6,6583,4,,0.86,3,   boost,99.54,86015,1360.36,38.8,     NaN,33.7,4,3.98,4,0.03,0,0,64.15,64.39,0,0,0,0,    NaN,4,0,0,0.03,0,1,1,9,32.9395167,-106.9122671,1390,2024,6,21,22,56,50,0,0,302,0,1.7,0.9,1.4,0,0,0,0,0,0,0,29,0,37,0,0,0,0,10,0,0,0,0,0,28,0,35,33,0,0,20,29,0,0,0,41
6,6583,4,,0.87,3,   boost,98.07,86008,1361.03,39.47,     NaN,33.6,4,3.98,4,0.03,0,0,64.15,64.39,0,0,0,0,    NaN,4,0,0,0.03,0,1,1,9,32.9395167,-106.9122671,1390,2024,6,21,22,56,50,0,0,302,0,1.7,0.9,1.4,0,0,0,0,0,0,0,29,0,37,0,0,0,0,10,0,0,0,0,0,28,0,35,33,0,0,20,29,0,0,0,41
6,6583,4,,0.88,3,   boost,100.52,85993,1362.45,40.89,     NaN,33.7,4,3.98,4,0.03,0,0,64.15,64.39,0,0,0,0,    NaN,4,0,0,0.03,0,1,1,9,32.9395167,-106.9122671,1390,2024,6,21,22,56,50,0,0,302,0,1.7,0.9,1.4,0,0,0,0,0,0,0,29,0,37,0,0,0,0,10,0,0,0,0,0,28,0,35,33,0,0,20,29,0,0,0,41
6,6583,4,,0.89,3,   boost,101.01,85992,1362.55,40.99,     NaN,33.7,4,3.98,4,0.03,0,0,64.15,64.39,0,0,0,0,    NaN,4,0,0,0.03,0,1,1,9,32.9395167,-106.9122671,1390,2024,6,21,22,56,50,0,0,302,0,1.7,0.9,1.4,0,0,0,0,0,0,0,29,0,37,0,0,0,0,10,0,0,0,0,0,28,0,35,33,0,0,20,29,0,0,0,41
6,6583,4,,0.9,3,   boost,99.05,85980,1363.69,42.13,     NaN,33.7,4,3.98,4,0.03,0,0,64.15,64.39,0,0,0,0,    NaN,4,0,0,0.03,0,1,1,9,32.9395167,-106.9122671,1390,2024,6,21,22,56,50,0,0,302,0,1.7,0.9,1.4,0,0,0,0,0,0,0,29,0,37,0,0,0,0,10,0,0,0,0,0,28,0,35,33,0,0,20,29,0,0,0,41
6,6583,4,,0.91,3,   boost,102.97,85967,1364.92,43.36,     NaN,33.7,4,3.98,4,0.03,0,0,64.15,64.39,0,0,0,0,    NaN,4,0,0,0.03,0,1,1,9,32.9395167,-106.9122671,1390,2024,6,21,22,56,50,0,0,302,0,1.7,0.9,1.4,0,0,0,0,0,0,0,29,0,37,0,0,0,0,10,0,0,0,0,0,28,0,35,33,0,0,20,29,0,0,0,41
6,6583,4,,0.92,3,   boost,100.52,85954,1366.16,44.6,     NaN,33.7,4,3.98,4,0.03,0,0,64.15,64.39,0,0,0,0,    NaN,4,0,0,0.03,0,1,1,9,32.9395167,-106.9122671,1390,2024,6,21,22,56,50,0,0,302,0,1.7,0.9,1.4,0,0,0,0,0,0,0,29,0,37,0,0,0,0,10,0,0,0,0,0,28,0,35,33,0,0,20,29,0,0,0,41
6,6583,4,,0.93,3,   boost,101.99,85940,1367.49,45.93,     NaN,33.6,4,3.98,4,0.03,0,0,64.15,64.39,0,0,0,0,    NaN,4,0,0,0.03,0,1,1,9,32.9395167,-106.9122671,1390,2024,6,21,22,56,50,0,0,302,0,1.7,0.9,1.4,0,0,0,0,0,0,0,29,0,37,0,0,0,0,10,0,0,0,0,0,28,0,35,33,0,0,20,29,0,0,0,41
6,6583,4,,0.94,3,   boost,102.48,85931,1368.35,46.79,     NaN,33.7,4,3.98,4,0.03,0,0,64.15,64.39,0,0,0,0,    NaN,4,0,0,0.03,0,1,1,9,32.9395167,-106.9122671,1390,2024,6,21,22,56,50,0,0,302,0,1.7,0.9,1.4,0,0,0,0,0,0,0,29,0,37,0,0,0,0,10,0,0,0,0,0,28,0,35,33,0,0,20,29,0,0,0,41
6,6583,4,,0.95,3,   boost,99.05,85934,1368.06,46.5,     NaN,33.7,4,3.98,4,0.03,0,0,64.15,64.39,0,0,0,0,    NaN,4,0,0,0.03,0,1,1,9,32.9395167,-106.9122671,1390,2024,6,21,22,56,50,0,0,302,0,1.7,0.9,1.4,0,0,0,0,0,0,0,29,0,37,0,0,0,0,10,0,0,0,0,0,28,0,35,33,0,0,20,29,0,0,0,41
6,6583,4,,0.96,3,   boost,101.01,85929,1368.54,46.98,     NaN,33.7,4,3.98,4,0.03,0,0,64.15,64.39,0,0,0,0,    NaN,4,0,0,0.03,0,1,1,9,32.9395167,-106.9122671,1390,2024,6,21,22,56,50,0,0,302,0,1.7,0.9,1.4,0,0,0,0,0,0,0,29,0,37,0,0,0,0,10,0,0,0,0,0,28,0,35,33,0,0,20,29,0,0,0,41
6,6583,4,,0.97,3,   boost,100.03,85915,1369.87,48.31,     NaN,33.7,4,3.98,4,0.03,0,0,64.15,64.39,0,0,0,0,    NaN,4,0,0,0.03,0,1,1,9,32.9395167,-106.9122671,1390,2024,6,21,22,56,50,0,0,302,0,1.7,0.9,1.4,0,0,0,0,0,0,0,29,0,37,0,0,0,0,10,0,0,0,0,0,28,0,35,33,0,0,20,29,0,0,0,41
6,6583,4,,0.98,3,   boost,104.44,85883,1372.91,51.35,     NaN,33.7,4,3.99,3.99,0.03,0,0,64.15,64.39,0,0,0,0,    NaN,4.01,0,0,0.02,0,1,1,9,32.9395167,-106.9122671,1390,2024,6,21,22,56,50,0,0,302,0,1.7,0.9,1.4,0,0,0,0,0,0,0,29,0,37,0,0,0,0,10,0,0,0,0,0,28,0,35,33,0,0,20,29,0,0,0,41
6,6583,4,,0.98,3,   boost,104.44,85883,1372.91,51.35,     NaN,33.7,4,3.99,3.99,0.03,0,0,64.15,64.39,0,0,0,0,    NaN,4.01,0,0,0.02,0,1,1,9,32.9395167,-106.9122671,1390,2024,6,21,22,56,50,0,0,302,0,1.7,0.9,1.4,0,0,0,0,0,0,0,29,0,37,0,0,0,0,10,0,0,0,0,0,28,0,35,33,0,0,20,29,0,0,0,41
6,6583,4,,0.99,3,   boost,103.46,85888,1372.44,50.88,     NaN,33.7,4,3.99,3.99,0.03,0,0,64.27,64.39,0,0,0,0,    NaN,4.01,0,0,0.02,0,1,1,9,32.9395167,-106.9122671,1390,2024,6,21,22,56,50,0,0,302,0,1.7,0.9,1.4,0,0,0,0,0,0,0,29,0,37,0,0,0,0,10,0,0,0,0,0,28,0,35,33,0,0,20,29,0,0,0,41
6,6583,4,,1,3,   boost,103.46,85875,1373.68,52.12,     NaN,33.7,4,3.99,3.99,0.03,0,0,64.27,64.39,0,0,0,0,    NaN,4.01,0,0,0.02,0,1,1,9,32.9395167,-106.9122671,1390,2024,6,21,22,56,50,0,0,302,0,1.7,0.9,1.4,0,0,0,0,0,0,0,29,0,37,0,0,0,0,10,0,0,0,0,0,28,0,35,33,0,0,20,29,0,0,0,41
6,6583,4,,1.01,3,   boost,103.46,85865,1374.63,53.07,     NaN,33.6,4,3.99,3.99,0.03,0,0,64.27,64.39,0,0,0,0,    NaN,4.01,0,0,0.02,0,1,1,9,32.9395167,-106.9122671,1390,2024,6,21,22,56,50,0,0,302,0,1.7,0.9,1.4,0,0,0,0,0,0,0,29,0,37,0,0,0,0,10,0,0,0,0,0,28,0,35,33,0,0,20,29,0,0,0,41
6,6583,4,,1.02,3,   boost,102.48,85850,1376.06,54.5,     NaN,33.7,4,3.99,3.99,0.03,0,0,64.27,64.39,0,0,0,0,    NaN,4.01,0,0,0.02,0,1,1,9,32.9395167,-106.9122671,1390,2024,6,21,22,56,50,0,0,302,0,1.7,0.9,1.4,0,0,0,0,0,0,0,29,0,37,0,0,0,0,10,0,0,0,0,0,28,0,35,33,0,0,20,29,0,0,0,41
6,6583,4,,1.03,3,   boost,105.42,85851,1375.96,54.4,     NaN,33.7,4,3.99,3.99,0.03,0,0,64.27,64.39,0,0,0,0,    NaN,4.01,0,0,0.02,0,1,1,9,32.9395167,-106.9122671,1390,2024,6,21,22,56,50,0,0,302,0,1.7,0.9,1.4,0,0,0,0,0,0,0,29,0,37,0,0,0,0,10,0,0,0,0,0,28,0,35,33,0,0,20,29,0,0,0,41
6,6583,4,,1.04,3,   boost,104.44,85837,1377.29,55.73,     NaN,33.7,4,3.99,3.99,0.03,0,0,64.27,64.39,0,0,0,0,    NaN,4.01,0,0,0.02,0,1,1,9,32.9395167,-106.9122671,1390,2024,6,21,22,56,50,0,0,302,0,1.7,0.9,1.4,0,0,0,0,0,0,0,29,0,37,0,0,0,0,10,0,0,0,0,0,28,0,35,33,0,0,20,29,0,0,0,41
6,6583,4,,1.05,3,   boost,100.52,85826,1378.34,56.78,     NaN,33.7,4,3.99,3.99,0.03,0,0,64.27,64.39,0,0,0,0,    NaN,4.01,0,0,0.02,0,1,1,9,32.9395167,-106.9122671,1390,2024,6,21,22,56,50,0,0,302,0,1.7,0.9,1.4,0,0,0,0,0,0,0,29,0,37,0,0,0,0,10,0,0,0,0,0,28,0,35,33,0,0,20,29,0,0,0,41
6,6583,4,,1.06,3,   boost,105.42,85822,1378.72,57.16,     NaN,33.7,4,3.99,3.99,0.03,0,0,64.27,64.39,0,0,0,0,    NaN,4.01,0,0,0.02,0,1,1,9,32.9394322,-106.9124595,1394,2024,6,21,22,56,51,20,21,243,11,1.7,0.9,1.4,0,0,0,0,0,0,0,29,0,22,0,0,0,0,9,0,0,0,0,0,27,0,23,26,0,0,21,29,0,0,0,24
6,6583,4,,1.06,3,   boost,105.42,85822,1378.72,57.16,     NaN,33.7,4,3.99,3.99,0.03,0,0,64.27,64.39,0,0,0,0,    NaN,4.01,0,0,0.02,0,1,1,9,32.9394322,-106.9124595,1394,2024,6,21,22,56,51,20,21,243,11,1.7,0.9,1.4,0,0,0,0,0,0,0,29,0,22,0,0,0,0,9,0,0,0,0,0,27,0,23,26,0,0,21,29,0,0,0,24
6,6583,4,,1.06,3,   boost,105.42,85822,1378.72,57.16,     NaN,33.7,4,3.99,3.99,0.03,0,0,64.27,64.39,0,0,0,0,    NaN,4.01,0,0,0.02,0,1,1,9,32.9394322,-106.9124595,1394,2024,6,21,22,56,51,20,21,243,11,1.7,0.9,1.4,0,0,0,0,0,0,0,29,0,22,0,0,0,0,9,0,0,0,0,0,27,0,23,26,0,0,21,29,0,0,0,24
6,6583,4,,1.07,3,   boost,100.03,85807,1380.15,58.59,     NaN,33.7,4,3.99,3.99,0.03,0,0,64.27,64.39,0,0,0,0,    NaN,4.01,0,0,0.02,0,1,1,9,32.9394322,-106.9124595,1394,2024,6,21,22,56,51,20,21,243,11,1.7,0.9,1.4,0,0,0,0,0,0,0,29,0,22,0,0,0,0,9,0,0,0,0,0,27,0,23,26,0,0,21,29,0,0,0,24
6,6583,4,,1.08,3,   boost,100.03,85798,1381.01,59.45,     NaN,33.7,4,3.99,3.99,0.03,0,0,64.27,64.39,0,0,0,0,    NaN,4.01,0,0,0.02,0,1,1,9,32.9394322,-106.9124595,1394,2024,6,21,22,56,51,20,21,243,11,1.7,0.9,1.4,0,0,0,0,0,0,0,29,0,22,0,0,0,0,9,0,0,0,0,0,27,0,23,26,0,0,21,29,0,0,0,24
6,6583,4,,1.09,3,   boost,103.46,85781,1382.63,61.07,     NaN,33.7,4,3.99,3.99,0.03,0,0,64.27,64.39,0,0,0,0,    NaN,4.01,0,0,0.02,0,1,1,9,32.9394322,-106.9124595,1394,2024,6,21,22,56,51,20,21,243,11,1.7,0.9,1.4,0,0,0,0,0,0,0,29,0,22,0,0,0,0,9,0,0,0,0,0,27,0,23,26,0,0,21,29,0,0,0,24
6,6583,4,,1.1,3,   boost,102.97,85774,1383.29,61.73,     NaN,33.7,4,3.99,3.99,0.03,0,0,64.27,64.39,0,0,0,0,    NaN,4.01,0,0,0.02,0,1,1,9,32.9394322,-106.9124595,1394,2024,6,21,22,56,51,20,21,243,11,1.7,0.9,1.4,0,0,0,0,0,0,0,29,0,22,0,0,0,0,9,0,0,0,0,0,27,0,23,26,0,0,21,29,0,0,0,24
6,6583,4,,1.11,3,   boost,105.42,85754,1385.2,63.64,     NaN,33.7,4,3.99,3.99,0.03,0,0,64.27,64.39,0,0,0,0,    NaN,4.01,0,0,0.02,0,1,1,9,32.9394322,-106.9124595,1394,2024,6,21,22,56,51,20,21,243,11,1.7,0.9,1.4,0,0,0,0,0,0,0,29,0,22,0,0,0,0,9,0,0,0,0,0,27,0,23,26,0,0,21,29,0,0,0,24
6,6583,4,,1.12,3,   boost,101.99,85766,1384.06,62.5,     NaN,33.7,4,3.99,3.99,0.03,0,0,64.27,64.39,0,0,0,0,    NaN,4.01,0,0,0.02,0,1,1,9,32.9394322,-106.9124595,1394,2024,6,21,22,56,51,20,21,243,11,1.7,0.9,1.4,0,0,0,0,0,0,0,29,0,22,0,0,0,0,9,0,0,0,0,0,27,0,23,26,0,0,21,29,0,0,0,24
6,6583,4,,1.13,3,   boost,103.46,85734,1387.1,65.54,     NaN,33.7,4,3.99,3.99,0.03,0,0,64.27,64.39,0,0,0,0,    NaN,4.01,0,0,0.02,0,1,1,9,32.9394322,-106.9124595,1394,2024,6,21,22,56,51,20,21,243,11,1.7,0.9,1.4,0,0,0,0,0,0,0,29,0,22,0,0,0,0,9,0,0,0,0,0,27,0,23,26,0,0,21,29,0,0,0,24
6,6583,4,,1.14,3,   boost,103.95,85736,1386.91,65.35,     NaN,33.7,4,3.99,3.99,0.03,0,0,64.27,64.39,0,0,0,0,    NaN,4.01,0,0,0.02,0,1,1,9,32.9394322,-106.9124595,1394,2024,6,21,22,56,51,20,21,243,11,1.7,0.9,1.4,0,0,0,0,0,0,0,29,0,22,0,0,0,0,9,0,0,0,0,0,27,0,23,26,0,0,21,29,0,0,0,24
6,6583,4,,1.15,3,   boost,104.93,85723,1388.15,66.59,     NaN,33.7,4,3.99,3.99,0.03,0,0,64.27,64.39,0,0,0,0,    NaN,4.01,0,0,0.02,0,1,1,9,32.9394322,-106.9124595,1394,2024,6,21,22,56,51,20,21,243,11,1.7,0.9,1.4,0,0,0,0,0,0,0,29,0,22,0,0,0,0,9,0,0,0,0,0,27,0,23,26,0,0,21,29,0,0,0,24
6,6583,4,,1.16,3,   boost,102.48,85720,1388.44,66.88,     NaN,33.7,4,3.99,3.99,0.03,0,0,64.27,64.39,0,0,0,0,    NaN,4.01,0,0,0.02,0,1,1,9,32.9394322,-106.9124595,1394,2024,6,21,22,56,51,20,21,243,11,1.7,0.9,1.4,0,0,0,0,0,0,0,29,0,22,0,0,0,0,9,0,0,0,0,0,27,0,23,26,0,0,21,29,0,0,0,24
6,6583,4,,1.17,3,   boost,101.99,85706,1389.77,68.21,     NaN,33.7,4,3.99,3.99,0.03,0,0,64.27,64.39,0,0,0,0,    NaN,4.01,0,0,0.02,0,1,1,9,32.9394322,-106.9124595,1394,2024,6,21,22,56,51,20,21,243,11,1.7,0.9,1.4,0,0,0,0,0,0,0,29,0,22,0,0,0,0,9,0,0,0,0,0,27,0,23,26,0,0,21,29,0,0,0,24
6,6583,4,,1.18,3,   boost,103.95,85697,1390.63,69.07,     NaN,33.6,4,3.99,3.99,0.03,0,0,64.27,64.39,0,0,0,0,    NaN,4.01,0,0,0.02,0,1,1,9,32.9394322,-106.9124595,1394,2024,6,21,22,56,51,20,21,243,11,1.7,0.9,1.4,0,0,0,0,0,0,0,29,0,22,0,0,0,0,9,0,0,0,0,0,27,0,23,26,0,0,21,29,0,0,0,24
6,6583,4,,1.19,3,   boost,105.91,85698,1390.54,68.98,     NaN,33.7,4,3.99,3.99,0.03,0,0,64.27,64.39,0,0,0,0,    NaN,4.01,0,0,0.02,0,1,1,9,32.9394322,-106.9124595,1394,2024,6,21,22,56,51,20,21,243,11,1.7,0.9,1.4,0,0,0,0,0,0,0,29,0,22,0,0,0,0,9,0,0,0,0,0,27,0,23,26,0,0,21,29,0,0,0,24
6,6583,4,,1.2,3,   boost,103.46,85676,1392.63,71.07,     NaN,33.7,4,3.99,3.99,0.03,0,0,64.27,64.39,0,0,0,0,    NaN,4.01,0,0,0.02,0,1,1,9,32.9394322,-106.9124595,1394,2024,6,21,22,56,51,20,21,243,11,1.7,0.9,1.4,0,0,0,0,0,0,0,29,0,22,0,0,0,0,9,0,0,0,0,0,27,0,23,26,0,0,21,29,0,0,0,24
6,6583,4,,1.21,3,   boost,104.93,85668,1393.4,71.84,     NaN,33.7,4,3.99,3.99,0.03,0,0,64.27,64.39,0,0,0,0,    NaN,4.01,0,0,0.02,0,1,1,9,32.9394322,-106.9124595,1394,2024,6,21,22,56,51,20,21,243,11,1.7,0.9,1.4,0,0,0,0,0,0,0,29,0,22,0,0,0,0,9,0,0,0,0,0,27,0,23,26,0,0,21,29,0,0,0,24
6,6583,4,,1.22,3,   boost,106.89,85667,1393.49,71.93,     NaN,33.7,4,3.99,3.99,0.03,0,0,64.27,64.39,0,0,0,0,    NaN,4.01,0,0,0.02,0,1,1,9,32.9394322,-106.9124595,1394,2024,6,21,22,56,51,20,21,243,11,1.7,0.9,1.4,0,0,0,0,0,0,0,29,0,22,0,0,0,0,9,0,0,0,0,0,27,0,23,26,0,0,21,29,0,0,0,24
6,6583,4,,1.23,3,   boost,107.38,85650,1395.11,73.55,     NaN,33.7,4,3.99,3.99,0.03,0,0,64.27,64.39,0,0,0,0,    NaN,4.01,0,0,0.02,0,1,1,9,32.9394322,-106.9124595,1394,2024,6,21,22,56,51,20,21,243,11,1.7,0.9,1.4,0,0,0,0,0,0,0,29,0,22,0,0,0,0,9,0,0,0,0,0,27,0,23,26,0,0,21,29,0,0,0,24
6,6583,4,,1.24,3,   boost,104.44,85642,1395.88,74.32,     NaN,33.7,4,3.99,3.99,0.03,0,0,64.27,64.39,0,0,0,0,    NaN,4.01,0,0,0.02,0,1,1,9,32.9394322,-106.9124595,1394,2024,6,21,22,56,51,20,21,243,11,1.7,0.9,1.4,0,0,0,0,0,0,0,29,0,22,0,0,0,0,9,0,0,0,0,0,27,0,23,26,0,0,21,29,0,0,0,24
6,6583,4,,1.25,3,   boost,103.95,85622,1397.78,76.22,     NaN,33.7,4,3.99,3.99,0.03,0,0,64.27,64.39,0,0,0,0,    NaN,4.01,0,0,0.02,0,1,1,9,32.9394322,-106.9124595,1394,2024,6,21,22,56,51,20,21,243,11,1.7,0.9,1.4,0,0,0,0,0,0,0,29,0,22,0,0,0,0,9,0,0,0,0,0,27,0,23,26,0,0,21,29,0,0,0,24
6,6583,4,,1.26,3,   boost,102.97,85609,1399.02,77.46,     NaN,33.7,4,3.99,3.99,0.03,0,0,64.27,64.39,0,0,0,0,    NaN,4.01,0,0,0.02,0,1,1,9,32.9394322,-106.9124595,1394,2024,6,21,22,56,51,20,21,243,11,1.7,0.9,1.4,0,0,0,0,0,0,0,29,0,22,0,0,0,0,9,0,0,0,0,0,27,0,23,26,0,0,21,29,0,0,0,24
6,6583,4,,1.27,3,   boost,103.95,85597,1400.17,78.61,     NaN,33.7,4,3.99,3.99,0.03,0,0,64.27,64.39,0,0,0,0,    NaN,4.01,0,0,0.02,0,1,1,9,32.9394322,-106.9124595,1394,2024,6,21,22,56,51,20,21,243,11,1.7,0.9,1.4,0,0,0,0,0,0,0,29,0,22,0,0,0,0,9,0,0,0,0,0,27,0,23,26,0,0,21,29,0,0,0,24
6,6583,4,,1.28,3,   boost,103.95,85580,1401.79,80.23,     NaN,33.7,4,3.99,3.99,0.03,0,0,64.27,64.39,0,0,0,0,    NaN,4.01,0,0,0.02,0,1,1,9,32.9394322,-106.9124595,1394,2024,6,21,22,56,51,20,21,243,11,1.7,0.9,1.4,0,0,0,0,0,0,0,29,0,22,0,0,0,0,9,0,0,0,0,0,27,0,23,26,0,0,21,29,0,0,0,24
6,6583,4,,1.29,3,   boost,104.44,85574,1402.36,80.8,     NaN,33.7,4,3.99,3.99,0.03,0,0,64.27,64.39,0,0,0,0,    NaN,4.01,0,0,0.02,0,1,1,9,32.9394322,-106.9124595,1394,2024,6,21,22,56,51,20,21,243,11,1.7,0.9,1.4,0,0,0,0,0,0,0,29,0,22,0,0,0,0,9,0,0,0,0,0,27,0,23,26,0,0,21,29,0,0,0,24
6,6583,4,,1.3,3,   boost,102.48,85557,1403.99,82.43,     NaN,33.7,4,4,4,0.03,0,0,64.27,64.39,0,0,0,0,    NaN,4.01,0,0,0.03,0,1,1,9,32.9394322,-106.9124595,1394,2024,6,21,22,56,51,20,21,243,11,1.7,0.9,1.4,0,0,0,0,0,0,0,29,0,22,0,0,0,0,9,0,0,0,0,0,27,0,23,26,0,0,21,29,0,0,0,24
6,6583,4,,1.3,3,   boost,102.48,85557,1403.99,82.43,     NaN,33.7,4,4,4,0.03,0,0,64.27,64.39,0,0,0,0,    NaN,4.01,0,0,0.03,0,1,1,9,32.9394322,-106.9124595,1394,2024,6,21,22,56,51,20,21,243,11,1.7,0.9,1.4,0,0,0,0,0,0,0,29,0,22,0,0,0,0,9,0,0,0,0,0,27,0,23,26,0,0,21,29,0,0,0,24
6,6583,4,,1.31,3,   boost,104.44,85530,1406.57,85.01,     NaN,33.6,4,4,4,0.03,0,0,64.33,64.46,0,0,0,0,    NaN,4.01,0,0,0.03,0,1,1,9,32.9394322,-106.9124595,1394,2024,6,21,22,56,51,20,21,243,11,1.7,0.9,1.4,0,0,0,0,0,0,0,29,0,22,0,0,0,0,9,0,0,0,0,0,27,0,23,26,0,0,21,29,0,0,0,24
6,6583,4,,1.32,3,   boost,103.95,85520,1407.52,85.96,     NaN,33.7,4,4,4,0.03,0,0,64.33,64.46,0,0,0,0,    NaN,4.01,0,0,0.03,0,1,1,9,32.9394322,-106.9124595,1394,2024,6,21,22,56,51,20,21,243,11,1.7,0.9,1.4,0,0,0,0,0,0,0,29,0,22,0,0,0,0,9,0,0,0,0,0,27,0,23,26,0,0,21,29,0,0,0,24
6,6583,4,,1.33,3,   boost,103.46,85497,1409.72,88.16,     NaN,33.7,4,4,4,0.03,0,0,64.33,64.46,0,0,0,0,    NaN,4.01,0,0,0.03,0,1,1,9,32.9394322,-106.9124595,1394,2024,6,21,22,56,51,20,21,243,11,1.7,0.9,1.4,0,0,0,0,0,0,0,29,0,22,0,0,0,0,9,0,0,0,0,0,27,0,23,26,0,0,21,29,0,0,0,24
6,6583,4,,1.34,3,   boost,104.44,85495,1409.91,88.35,     NaN,33.6,4,4,4,0.03,0,0,64.33,64.46,0,0,0,0,    NaN,4.01,0,0,0.03,0,1,1,9,32.9394322,-106.9124595,1394,2024,6,21,22,56,51,20,21,243,11,1.7,0.9,1.4,0,0,0,0,0,0,0,29,0,22,0,0,0,0,9,0,0,0,0,0,27,0,23,26,0,0,21,29,0,0,0,24
6,6583,4,,1.35,3,   boost,104.44,85466,1412.68,91.12,     NaN,33.7,4,4,4,0.03,0,0,64.33,64.46,0,0,0,0,    NaN,4.01,0,0,0.03,0,1,1,9,32.9394322,-106.9124595,1394,2024,6,21,22,56,51,20,21,243,11,1.7,0.9,1.4,0,0,0,0,0,0,0,29,0,22,0,0,0,0,9,0,0,0,0,0,27,0,23,26,0,0,21,29,0,0,0,24
6,6583,4,,1.36,3,   boost,103.46,85459,1413.35,91.79,     NaN,33.7,4,4,4,0.03,0,0,64.33,64.46,0,0,0,0,    NaN,4.01,0,0,0.03,0,1,1,9,32.9394322,-106.9124595,1394,2024,6,21,22,56,51,20,21,243,11,1.7,0.9,1.4,0,0,0,0,0,0,0,29,0,22,0,0,0,0,9,0,0,0,0,0,27,0,23,26,0,0,21,29,0,0,0,24
6,6583,4,,1.37,3,   boost,102.48,85444,1414.78,93.22,     NaN,33.6,4,4,4,0.03,0,0,64.33,64.46,0,0,0,0,    NaN,4.01,0,0,0.03,0,1,1,9,32.9394322,-106.9124595,1394,2024,6,21,22,56,51,20,21,243,11,1.7,0.9,1.4,0,0,0,0,0,0,0,29,0,22,0,0,0,0,9,0,0,0,0,0,27,0,23,26,0,0,21,29,0,0,0,24
6,6583,4,,1.38,3,   boost,103.95,85437,1415.45,93.89,     NaN,33.7,4,4,4,0.03,0,0,64.33,64.46,0,0,0,0,    NaN,4.01,0,0,0.03,0,1,1,9,32.9394322,-106.9124595,1394,2024,6,21,22,56,51,20,21,243,11,1.7,0.9,1.4,0,0,0,0,0,0,0,29,0,22,0,0,0,0,9,0,0,0,0,0,27,0,23,26,0,0,21,29,0,0,0,24
6,6583,4,,1.39,3,   boost,104.44,85405,1418.51,96.95,     NaN,33.7,4,4,4,0.03,0,0,64.33,64.46,0,0,0,0,    NaN,4.01,0,0,0.03,0,1,1,9,32.9394322,-106.9124595,1394,2024,6,21,22,56,51,20,21,243,11,1.7,0.9,1.4,0,0,0,0,0,0,0,29,0,22,0,0,0,0,9,0,0,0,0,0,27,0,23,26,0,0,21,29,0,0,0,24
6,6583,4,,1.4,3,   boost,103.46,85392,1419.75,98.19,     NaN,33.7,4,4,4,0.03,0,0,64.33,64.46,0,0,0,0,    NaN,4.01,0,0,0.03,0,1,1,9,32.9394322,-106.9124595,1394,2024,6,21,22,56,51,20,21,243,11,1.7,0.9,1.4,0,0,0,0,0,0,0,29,0,22,0,0,0,0,9,0,0,0,0,0,27,0,23,26,0,0,21,29,0,0,0,24
6,6583,4,,1.41,3,   boost,103.95,85399,1419.08,97.52,     NaN,33.7,4,4,4,0.03,0,0,64.33,64.46,0,0,0,0,    NaN,4.01,0,0,0.03,0,1,1,9,32.9394322,-106.9124595,1394,2024,6,21,22,56,51,20,21,243,11,1.7,0.9,1.4,0,0,0,0,0,0,0,29,0,22,0,0,0,0,9,0,0,0,0,0,27,0,23,26,0,0,21,29,0,0,0,24
6,6583,4,,1.42,3,   boost,104.44,85365,1422.33,100.77,     NaN,33.7,4,4,4,0.03,0,0,64.33,64.46,0,0,0,0,    NaN,4.01,0,0,0.03,0,1,1,9,32.9394322,-106.9124595,1394,2024,6,21,22,56,51,20,21,243,11,1.7,0.9,1.4,0,0,0,0,0,0,0,29,0,22,0,0,0,0,9,0,0,0,0,0,27,0,23,26,0,0,21,29,0,0,0,24
6,6583,4,,1.43,3,   boost,104.44,85351,1423.67,102.11,     NaN,33.7,4,4,4,0.03,0,0,64.33,64.46,0,0,0,0,    NaN,4.01,0,0,0.03,0,1,1,9,32.9394322,-106.9124595,1394,2024,6,21,22,56,51,20,21,243,11,1.7,0.9,1.4,0,0,0,0,0,0,0,29,0,22,0,0,0,0,9,0,0,0,0,0,27,0,23,26,0,0,21,29,0,0,0,24
6,6583,4,,1.44,3,   boost,102.97,85344,1424.34,102.78,     NaN,33.7,4,4,4,0.03,0,0,64.33,64.46,0,0,0,0,    NaN,4.01,0,0,0.03,0,1,1,9,32.9394322,-106.9124595,1394,2024,6,21,22,56,51,20,21,243,11,1.7,0.9,1.4,0,0,0,0,0,0,0,29,0,22,0,0,0,0,9,0,0,0,0,0,27,0,23,26,0,0,21,29,0,0,0,24
6,6583,4,,1.45,3,   boost,101.5,85306,1427.98,106.42,     NaN,33.7,4,4,4,0.03,0,0,64.33,64.46,0,0,0,0,    NaN,4.01,0,0,0.03,0,1,1,9,32.9394322,-106.9124595,1394,2024,6,21,22,56,51,20,21,243,11,1.7,0.9,1.4,0,0,0,0,0,0,0,29,0,22,0,0,0,0,9,0,0,0,0,0,27,0,23,26,0,0,21,29,0,0,0,24
6,6583,4,,1.46,3,   boost,105.42,85301,1428.46,106.9,     NaN,33.7,4,4,4,0.03,0,0,64.33,64.46,0,0,0,0,    NaN,4.01,0,0,0.03,0,1,1,9,32.9394322,-106.9124595,1394,2024,6,21,22,56,51,20,21,243,11,1.7,0.9,1.4,0,0,0,0,0,0,0,29,0,22,0,0,0,0,9,0,0,0,0,0,27,0,23,26,0,0,21,29,0,0,0,24
6,6583,4,,1.47,3,   boost,104.44,85277,1430.75,109.19,     NaN,33.7,4,4,4,0.03,0,0,64.33,64.46,0,0,0,0,    NaN,4.01,0,0,0.03,0,1,1,9,32.9394322,-106.9124595,1394,2024,6,21,22,56,51,20,21,243,11,1.7,0.9,1.4,0,0,0,0,0,0,0,29,0,22,0,0,0,0,9,0,0,0,0,0,27,0,23,26,0,0,21,29,0,0,0,24
6,6583,4,,1.48,3,   boost,101.01,85266,1431.81,110.25,     NaN,33.7,4,4,4,0.03,0,0,64.33,64.46,0,0,0,0,    NaN,4.01,0,0,0.03,0,1,1,9,32.9394322,-106.9124595,1394,2024,6,21,22,56,51,20,21,243,11,1.7,0.9,1.4,0,0,0,0,0,0,0,29,0,22,0,0,0,0,9,0,0,0,0,0,27,0,23,26,0,0,21,29,0,0,0,24
6,6583,4,,1.49,3,   boost,102.48,85251,1433.24,111.68,     NaN,33.6,4,4,4,0.03,0,0,64.33,64.46,0,0,0,0,    NaN,4.01,0,0,0.03,0,1,1,9,32.9394322,-106.9124595,1394,2024,6,21,22,56,51,20,21,243,11,1.7,0.9,1.4,0,0,0,0,0,0,0,29,0,22,0,0,0,0,9,0,0,0,0,0,27,0,23,26,0,0,21,29,0,0,0,24
6,6583,4,,1.5,3,   boost,103.46,85226,1435.63,114.07,     NaN,33.7,4,4,4,0.03,0,0,64.33,64.46,0,0,0,0,    NaN,4.01,0,0,0.03,0,1,1,9,32.9394322,-106.9124595,1394,2024,6,21,22,56,51,20,21,243,11,1.7,0.9,1.4,0,0,0,0,0,0,0,29,0,22,0,0,0,0,9,0,0,0,0,0,27,0,23,26,0,0,21,29,0,0,0,24
6,6583,4,,1.51,3,   boost,105.42,85218,1436.4,114.84,     NaN,33.7,4,4,4,0.03,0,0,64.33,64.46,0,0,0,0,    NaN,4.01,0,0,0.03,0,1,1,9,32.9394322,-106.9124595,1394,2024,6,21,22,56,51,20,21,243,11,1.7,0.9,1.4,0,0,0,0,0,0,0,29,0,22,0,0,0,0,9,0,0,0,0,0,27,0,23,26,0,0,21,29,0,0,0,24
6,6583,4,,1.52,3,   boost,102.48,85196,1438.51,116.95,     NaN,33.7,4,4,4,0.03,0,0,64.33,64.46,0,0,0,0,    NaN,4.01,0,0,0.03,0,1,1,9,32.9394322,-106.9124595,1394,2024,6,21,22,56,51,20,21,243,11,1.7,0.9,1.4,0,0,0,0,0,0,0,29,0,22,0,0,0,0,9,0,0,0,0,0,27,0,23,26,0,0,21,29,0,0,0,24
6,6583,4,,1.53,3,   boost,102.48,85187,1439.37,117.81,     NaN,33.7,4,4,4,0.03,0,0,64.33,64.46,0,0,0,0,    NaN,4.01,0,0,0.03,0,1,1,9,32.9394322,-106.9124595,1394,2024,6,21,22,56,51,20,21,243,11,1.7,0.9,1.4,0,0,0,0,0,0,0,29,0,22,0,0,0,0,9,0,0,0,0,0,27,0,23,26,0,0,21,29,0,0,0,24
6,6583,4,,1.54,3,   boost,102.97,85162,1441.77,120.21,     NaN,33.7,4,4,4,0.03,0,0,64.33,64.46,0,0,0,0,    NaN,4.01,0,0,0.03,0,1,1,9,32.9394322,-106.9124595,1394,2024,6,21,22,56,51,20,21,243,11,1.7,0.9,1.4,0,0,0,0,0,0,0,29,0,22,0,0,0,0,9,0,0,0,0,0,27,0,23,26,0,0,21,29,0,0,0,24
6,6583,4,,1.55,3,   boost,102.97,85150,1442.92,121.36,     NaN,33.6,4,4,4,0.03,0,0,64.33,64.46,0,0,0,0,    NaN,4.01,0,0,0.03,0,1,1,9,32.9394322,-106.9124595,1394,2024,6,21,22,56,51,20,21,243,11,1.7,0.9,1.4,0,0,0,0,0,0,0,29,0,22,0,0,0,0,9,0,0,0,0,0,27,0,23,26,0,0,21,29,0,0,0,24
6,6583,4,,1.56,3,   boost,100.52,85138,1444.07,122.51,     NaN,33.6,4,4,4,0.03,0,0,64.33,64.46,0,0,0,0,    NaN,4.01,0,0,0.03,0,1,1,9,32.9394322,-106.9124595,1394,2024,6,21,22,56,51,20,21,243,11,1.7,0.9,1.4,0,0,0,0,0,0,0,29,0,22,0,0,0,0,9,0,0,0,0,0,27,0,23,26,0,0,21,29,0,0,0,24
6,6583,4,,1.57,3,   boost,102.97,85119,1445.89,124.33,     NaN,33.6,4,4,4,0.03,0,0,64.33,64.46,0,0,0,0,    NaN,4.01,0,0,0.03,0,1,1,9,32.9394322,-106.9124595,1394,2024,6,21,22,56,51,20,21,243,11,1.7,0.9,1.4,0,0,0,0,0,0,0,29,0,22,0,0,0,0,9,0,0,0,0,0,27,0,23,26,0,0,21,29,0,0,0,24
6,6583,4,,1.58,3,   boost,99.54,85115,1446.27,124.71,     NaN,33.7,4,4,4,0.03,0,0,64.33,64.46,0,0,0,0,    NaN,4.01,0,0,0.03,0,1,1,9,32.9394322,-106.9124595,1394,2024,6,21,22,56,51,20,21,243,11,1.7,0.9,1.4,0,0,0,0,0,0,0,29,0,22,0,0,0,0,9,0,0,0,0,0,27,0,23,26,0,0,21,29,0,0,0,24
6,6583,4,,1.59,3,   boost,101.01,85093,1448.38,126.82,     NaN,33.7,4,4,4,0.03,0,0,64.33,64.46,0,0,0,0,    NaN,4.01,0,0,0.03,0,1,1,9,32.9394322,-106.9124595,1394,2024,6,21,22,56,51,20,21,243,11,1.7,0.9,1.4,0,0,0,0,0,0,0,29,0,22,0,0,0,0,9,0,0,0,0,0,27,0,23,26,0,0,21,29,0,0,0,24
6,6583,4,,1.6,3,   boost,99.54,85064,1451.16,129.6,     NaN,33.7,4,4,4,0.03,0,0,64.33,64.46,0,0,0,0,    NaN,4.01,0,0,0.03,0,1,1,9,32.9394322,-106.9124595,1394,2024,6,21,22,56,51,20,21,243,11,1.7,0.9,1.4,0,0,0,0,0,0,0,29,0,22,0,0,0,0,9,0,0,0,0,0,27,0,23,26,0,0,21,29,0,0,0,24
6,6583,4,,1.61,3,   boost,101.5,85058,1451.74,130.18,     NaN,33.7,4,4,4,0.03,0,0,64.33,64.46,0,0,0,0,    NaN,4.01,0,0,0.03,0,1,1,9,32.9394322,-106.9124595,1394,2024,6,21,22,56,51,20,21,243,11,1.7,0.9,1.4,0,0,0,0,0,0,0,29,0,22,0,0,0,0,9,0,0,0,0,0,27,0,23,26,0,0,21,29,0,0,0,24
6,6583,4,,1.62,3,   boost,101.01,85044,1453.08,131.52,     NaN,33.7,4.01,3.98,3.99,0.03,0,0,64.33,64.46,0,0,0,0,    NaN,4,0,0,0.02,0,1,1,9,32.9394322,-106.9124595,1394,2024,6,21,22,56,51,20,21,243,11,1.7,0.9,1.4,0,0,0,0,0,0,0,29,0,22,0,0,0,0,9,0,0,0,0,0,27,0,23,26,0,0,21,29,0,0,0,24
6,6583,4,,1.62,3,   boost,101.01,85044,1453.08,131.52,     NaN,33.7,4.01,3.98,3.99,0.03,0,0,64.33,64.46,0,0,0,0,    NaN,4,0,0,0.02,0,1,1,9,32.9394322,-106.9124595,1394,2024,6,21,22,56,51,20,21,243,11,1.7,0.9,1.4,0,0,0,0,0,0,0,29,0,22,0,0,0,0,9,0,0,0,0,0,27,0,23,26,0,0,21,29,0,0,0,24
6,6583,4,,1.63,3,   boost,103.95,85012,1456.15,134.59,     NaN,33.7,4.01,3.98,3.99,0.03,0,0,64.15,64.52,0,0,0,0,    NaN,4,0,0,0.02,0,1,1,9,32.9394322,-106.9124595,1394,2024,6,21,22,56,51,20,21,243,11,1.7,0.9,1.4,0,0,0,0,0,0,0,29,0,22,0,0,0,0,9,0,0,0,0,0,27,0,23,26,0,0,21,29,0,0,0,24
6,6583,4,,1.64,3,   boost,100.52,85006,1456.72,135.16,     NaN,33.7,4.01,3.98,3.99,0.03,0,0,64.15,64.52,0,0,0,0,    NaN,4,0,0,0.02,0,1,1,9,32.9394322,-106.9124595,1394,2024,6,21,22,56,51,20,21,243,11,1.7,0.9,1.4,0,0,0,0,0,0,0,29,0,22,0,0,0,0,9,0,0,0,0,0,27,0,23,26,0,0,21,29,0,0,0,24
6,6583,4,,1.65,3,   boost,101.99,84990,1458.26,136.7,     NaN,33.6,4.01,3.98,3.99,0.03,0,0,64.15,64.52,0,0,0,0,    NaN,4,0,0,0.02,0,1,1,9,32.9394322,-106.9124595,1394,2024,6,21,22,56,51,20,21,243,11,1.7,0.9,1.4,0,0,0,0,0,0,0,29,0,22,0,0,0,0,9,0,0,0,0,0,27,0,23,26,0,0,21,29,0,0,0,24
6,6583,4,,1.66,3,   boost,98.56,84978,1459.41,137.85,     NaN,33.7,4.01,3.98,3.99,0.03,0,0,64.15,64.52,0,0,0,0,    NaN,4,0,0,0.02,0,1,1,9,32.9394322,-106.9124595,1394,2024,6,21,22,56,51,20,21,243,11,1.7,0.9,1.4,0,0,0,0,0,0,0,29,0,22,0,0,0,0,9,0,0,0,0,0,27,0,23,26,0,0,21,29,0,0,0,24
6,6583,4,,1.67,3,   boost,98.56,84958,1461.33,139.77,     NaN,33.6,4.01,3.98,3.99,0.03,0,0,64.15,64.52,0,0,0,0,    NaN,4,0,0,0.02,0,1,1,9,32.9394322,-106.9124595,1394,2024,6,21,22,56,51,20,21,243,11,1.7,0.9,1.4,0,0,0,0,0,0,0,29,0,22,0,0,0,0,9,0,0,0,0,0,27,0,23,26,0,0,21,29,0,0,0,24
6,6583,4,,1.68,3,   boost,100.03,84939,1463.16,141.6,     NaN,33.7,4.01,3.98,3.99,0.03,0,0,64.15,64.52,0,0,0,0,    NaN,4,0,0,0.02,0,1,1,9,32.9394322,-106.9124595,1394,2024,6,21,22,56,51,20,21,243,11,1.7,0.9,1.4,0,0,0,0,0,0,0,29,0,22,0,0,0,0,9,0,0,0,0,0,27,0,23,26,0,0,21,29,0,0,0,24
6,6583,4,,1.69,3,   boost,100.52,84931,1463.92,142.36,     NaN,33.7,4.01,3.98,3.99,0.03,0,0,64.15,64.52,0,0,0,0,    NaN,4,0,0,0.02,0,1,1,9,32.9394322,-106.9124595,1394,2024,6,21,22,56,51,20,21,243,11,1.7,0.9,1.4,0,0,0,0,0,0,0,29,0,22,0,0,0,0,9,0,0,0,0,0,27,0,23,26,0,0,21,29,0,0,0,24
6,6583,4,,1.7,3,   boost,98.56,84908,1466.13,144.57,     NaN,33.7,4.01,3.98,3.99,0.03,0,0,64.15,64.52,0,0,0,0,    NaN,4,0,0,0.02,0,1,1,9,32.9394322,-106.9124595,1394,2024,6,21,22,56,51,20,21,243,11,1.7,0.9,1.4,0,0,0,0,0,0,0,29,0,22,0,0,0,0,9,0,0,0,0,0,27,0,23,26,0,0,21,29,0,0,0,24
6,6583,4,,1.71,3,   boost,102.48,84906,1466.33,144.77,     NaN,33.7,4.01,3.98,3.99,0.03,0,0,64.15,64.52,0,0,0,0,    NaN,4,0,0,0.02,0,1,1,9,32.9394322,-106.9124595,1394,2024,6,21,22,56,51,20,21,243,11,1.7,0.9,1.4,0,0,0,0,0,0,0,29,0,22,0,0,0,0,9,0,0,0,0,0,27,0,23,26,0,0,21,29,0,0,0,24
6,6583,4,,1.72,3,   boost,100.52,84888,1468.05,146.49,     NaN,33.7,4.01,3.98,3.99,0.03,0,0,64.15,64.52,0,0,0,0,    NaN,4,0,0,0.02,0,1,1,9,32.9394322,-106.9124595,1394,2024,6,21,22,56,51,20,21,243,11,1.7,0.9,1.4,0,0,0,0,0,0,0,29,0,22,0,0,0,0,9,0,0,0,0,0,27,0,23,26,0,0,21,29,0,0,0,24
6,6583,4,,1.73,3,   boost,101.99,84888,1468.05,146.49,     NaN,33.7,4.01,3.98,3.99,0.03,0,0,64.15,64.52,0,0,0,0,    NaN,4,0,0,0.02,0,1,1,9,32.9394322,-106.9124595,1394,2024,6,21,22,56,51,20,21,243,11,1.7,0.9,1.4,0,0,0,0,0,0,0,29,0,22,0,0,0,0,9,0,0,0,0,0,27,0,23,26,0,0,21,29,0,0,0,24
6,6583,4,,1.74,3,   boost,99.54,84853,1471.42,149.86,     NaN,33.7,4.01,3.98,3.99,0.03,0,0,64.15,64.52,0,0,0,0,    NaN,4,0,0,0.02,0,1,1,9,32.9394322,-106.9124595,1394,2024,6,21,22,56,51,20,21,243,11,1.7,0.9,1.4,0,0,0,0,0,0,0,29,0,22,0,0,0,0,9,0,0,0,0,0,27,0,23,26,0,0,21,29,0,0,0,24
6,6583,4,,1.75,3,   boost,97.09,84837,1472.95,151.4,     NaN,33.7,4.01,3.98,3.99,0.03,0,0,64.15,64.52,0,0,0,0,    NaN,4,0,0,0.02,0,1,1,9,32.9394322,-106.9124595,1394,2024,6,21,22,56,51,20,21,243,11,1.7,0.9,1.4,0,0,0,0,0,0,0,29,0,22,0,0,0,0,9,0,0,0,0,0,27,0,23,26,0,0,21,29,0,0,0,24
6,6583,4,,1.76,3,   boost,100.03,84827,1473.92,152.36,     NaN,33.7,4.01,3.98,3.99,0.03,0,0,64.15,64.52,0,0,0,0,    NaN,4,0,0,0.02,0,1,1,9,32.9394322,-106.9124595,1394,2024,6,21,22,56,51,20,21,243,11,1.7,0.9,1.4,0,0,0,0,0,0,0,29,0,22,0,0,0,0,9,0,0,0,0,0,27,0,23,26,0,0,21,29,0,0,0,24
6,6583,4,,1.77,3,   boost,97.58,84825,1474.11,152.55,     NaN,33.7,4.01,3.98,3.99,0.03,0,0,64.15,64.52,0,0,0,0,    NaN,4,0,0,0.02,0,1,1,9,32.9394322,-106.9124595,1394,2024,6,21,22,56,51,20,21,243,11,1.7,0.9,1.4,0,0,0,0,0,0,0,29,0,22,0,0,0,0,9,0,0,0,0,0,27,0,23,26,0,0,21,29,0,0,0,24
6,6583,4,,1.78,3,   boost,98.56,84805,1476.03,154.47,     NaN,33.7,4.01,3.98,3.99,0.03,0,0,64.15,64.52,0,0,0,0,    NaN,4,0,0,0.02,0,1,1,9,32.9394322,-106.9124595,1394,2024,6,21,22,56,51,20,21,243,11,1.7,0.9,1.4,0,0,0,0,0,0,0,29,0,22,0,0,0,0,9,0,0,0,0,0,27,0,23,26,0,0,21,29,0,0,0,24
6,6583,4,,1.79,3,   boost,98.07,84783,1478.15,156.59,     NaN,33.7,4.01,3.98,3.99,0.03,0,0,64.15,64.52,0,0,0,0,    NaN,4,0,0,0.02,0,1,1,9,32.9394322,-106.9124595,1394,2024,6,21,22,56,51,20,21,243,11,1.7,0.9,1.4,0,0,0,0,0,0,0,29,0,22,0,0,0,0,9,0,0,0,0,0,27,0,23,26,0,0,21,29,0,0,0,24
6,6583,4,,1.8,3,   boost,95.61,84774,1479.01,157.45,     NaN,33.7,4.01,3.98,3.99,0.03,0,0,64.15,64.52,0,0,0,0,    NaN,4,0,0,0.02,0,1,1,9,32.9394322,-106.9124595,1394,2024,6,21,22,56,51,20,21,243,11,1.7,0.9,1.4,0,0,0,0,0,0,0,29,0,22,0,0,0,0,9,0,0,0,0,0,27,0,23,26,0,0,21,29,0,0,0,24
6,6583,4,,1.81,3,   boost,97.58,84758,1480.55,158.99,     NaN,33.7,4.01,3.98,3.99,0.03,0,0,64.15,64.52,0,0,0,0,    NaN,4,0,0,0.02,0,1,1,9,32.9394322,-106.9124595,1394,2024,6,21,22,56,51,20,21,243,11,1.7,0.9,1.4,0,0,0,0,0,0,0,29,0,22,0,0,0,0,9,0,0,0,0,0,27,0,23,26,0,0,21,29,0,0,0,24
6,6583,4,,1.82,3,   boost,98.07,84737,1482.57,161.01,     NaN,33.6,4.01,3.98,3.99,0.03,0,0,64.15,64.52,0,0,0,0,    NaN,4,0,0,0.02,0,1,1,9,32.9394322,-106.9124595,1394,2024,6,21,22,56,51,20,21,243,11,1.7,0.9,1.4,0,0,0,0,0,0,0,29,0,22,0,0,0,0,9,0,0,0,0,0,27,0,23,26,0,0,21,29,0,0,0,24
6,6583,4,,1.83,3,   boost,98.56,84724,1483.82,162.26,     NaN,33.7,4.01,3.98,3.99,0.03,0,0,64.15,64.52,0,0,0,0,    NaN,4,0,0,0.02,0,1,1,9,32.9394322,-106.9124595,1394,2024,6,21,22,56,51,20,21,243,11,1.7,0.9,1.4,0,0,0,0,0,0,0,29,0,22,0,0,0,0,9,0,0,0,0,0,27,0,23,26,0,0,21,29,0,0,0,24
6,6583,4,,1.84,3,   boost,99.54,84715,1484.69,163.13,     NaN,33.7,4.01,3.98,3.99,0.03,0,0,64.15,64.52,0,0,0,0,    NaN,4,0,0,0.02,0,1,1,9,32.9394322,-106.9124595,1394,2024,6,21,22,56,51,20,21,243,11,1.7,0.9,1.4,0,0,0,0,0,0,0,29,0,22,0,0,0,0,9,0,0,0,0,0,27,0,23,26,0,0,21,29,0,0,0,24
6,6583,4,,1.85,3,   boost,97.09,84687,1487.38,165.82,     NaN,33.7,4.01,3.98,3.99,0.03,0,0,64.15,64.52,0,0,0,0,    NaN,4,0,0,0.02,0,1,1,9,32.9394322,-106.9124595,1394,2024,6,21,22,56,51,20,21,243,11,1.7,0.9,1.4,0,0,0,0,0,0,0,29,0,22,0,0,0,0,9,0,0,0,0,0,27,0,23,26,0,0,21,29,0,0,0,24
6,6583,4,,1.86,3,   boost,98.56,84670,1489.02,167.46,     NaN,33.6,4.01,3.98,3.99,0.03,0,0,64.15,64.52,0,0,0,0,    NaN,4,0,0,0.02,0,1,1,9,32.9394322,-106.9124595,1394,2024,6,21,22,56,51,20,21,243,11,1.7,0.9,1.4,0,0,0,0,0,0,0,29,0,22,0,0,0,0,9,0,0,0,0,0,27,0,23,26,0,0,21,29,0,0,0,24
6,6583,4,,1.87,3,   boost,92.18,84659,1490.08,168.52,     NaN,33.6,4.01,3.98,3.99,0.03,0,0,64.15,64.52,0,0,0,0,    NaN,4,0,0,0.02,0,1,1,9,32.9394322,-106.9124595,1394,2024,6,21,22,56,51,20,21,243,11,1.7,0.9,1.4,0,0,0,0,0,0,0,29,0,22,0,0,0,0,9,0,0,0,0,0,27,0,23,26,0,0,21,29,0,0,0,24
6,6583,4,,1.88,3,   boost,95.12,84632,1492.68,171.12,     NaN,33.7,4.01,3.98,3.99,0.03,0,0,64.15,64.52,0,0,0,0,    NaN,4,0,0,0.02,0,1,1,9,32.9394322,-106.9124595,1394,2024,6,21,22,56,51,20,21,243,11,1.7,0.9,1.4,0,0,0,0,0,0,0,29,0,22,0,0,0,0,9,0,0,0,0,0,27,0,23,26,0,0,21,29,0,0,0,24
6,6583,4,,1.89,3,   boost,96.6,84624,1493.45,171.89,     NaN,33.6,4.01,3.98,3.99,0.03,0,0,64.15,64.52,0,0,0,0,    NaN,4,0,0,0.02,0,1,1,9,32.9394322,-106.9124595,1394,2024,6,21,22,56,51,20,21,243,11,1.7,0.9,1.4,0,0,0,0,0,0,0,29,0,22,0,0,0,0,9,0,0,0,0,0,27,0,23,26,0,0,21,29,0,0,0,24
6,6583,4,,1.9,3,   boost,96.6,84604,1495.38,173.82,     NaN,33.6,4.01,3.98,3.99,0.03,0,0,64.15,64.52,0,0,0,0,    NaN,4,0,0,0.02,0,1,1,9,32.9394322,-106.9124595,1394,2024,6,21,22,56,51,20,21,243,11,1.7,0.9,1.4,0,0,0,0,0,0,0,29,0,22,0,0,0,0,9,0,0,0,0,0,27,0,23,26,0,0,21,29,0,0,0,24
6,6583,4,,1.91,3,   boost,93.65,84587,1497.01,175.45,     NaN,33.6,4.01,3.98,3.99,0.03,0,0,64.15,64.52,0,0,0,0,    NaN,4,0,0,0.02,0,1,1,9,32.9394322,-106.9124595,1394,2024,6,21,22,56,51,20,21,243,11,1.7,0.9,1.4,0,0,0,0,0,0,0,29,0,22,0,0,0,0,9,0,0,0,0,0,27,0,23,26,0,0,21,29,0,0,0,24
6,6583,4,,1.92,3,   boost,98.56,84562,1499.42,177.86,     NaN,33.7,4.01,3.98,3.99,0.03,0,0,64.15,64.52,0,0,0,0,    NaN,4,0,0,0.02,0,1,1,9,32.9394322,-106.9124595,1394,2024,6,21,22,56,51,20,21,243,11,1.7,0.9,1.4,0,0,0,0,0,0,0,29,0,22,0,0,0,0,9,0,0,0,0,0,27,0,23,26,0,0,21,29,0,0,0,24
6,6583,4,,1.93,3,   boost,98.07,84556,1500,178.44,     NaN,33.7,4.01,3.98,3.99,0.03,0,0,64.15,64.52,0,0,0,0,    NaN,4,0,0,0.02,0,1,1,9,32.9394322,-106.9124595,1394,2024,6,21,22,56,51,20,21,243,11,1.7,0.9,1.4,0,0,0,0,0,0,0,29,0,22,0,0,0,0,9,0,0,0,0,0,27,0,23,26,0,0,21,29,0,0,0,24
6,6583,4,,1.94,3,   boost,91.69,84530,1502.51,180.95,     NaN,33.6,4,3.98,3.99,0.03,0,0,64.15,64.52,0,0,0,0,    NaN,4.01,0,0,0,0,1,1,9,32.9394322,-106.9124595,1394,2024,6,21,22,56,51,20,21,243,11,1.7,0.9,1.4,0,0,0,0,0,0,0,29,0,22,0,0,0,0,9,0,0,0,0,0,27,0,23,26,0,0,21,29,0,0,0,24
6,6583,4,,1.94,3,   boost,91.69,84530,1502.51,180.95,     NaN,33.6,4,3.98,3.99,0.03,0,0,64.15,64.52,0,0,0,0,    NaN,4.01,0,0,0,0,1,1,9,32.9394322,-106.9124595,1394,2024,6,21,22,56,51,20,21,243,11,1.7,0.9,1.4,0,0,0,0,0,0,0,29,0,22,0,0,0,0,9,0,0,0,0,0,27,0,23,26,0,0,21,29,0,0,0,24
6,6583,4,,1.95,3,   boost,93.16,84519,1503.57,182.01,     NaN,33.6,4,3.98,3.99,0,0,0,64.15,64.39,0,0,0,0,    NaN,4.01,0,0,0,0,1,1,9,32.9394322,-106.9124595,1394,2024,6,21,22,56,51,20,21,243,11,1.7,0.9,1.4,0,0,0,0,0,0,0,29,0,22,0,0,0,0,9,0,0,0,0,0,27,0,23,26,0,0,21,29,0,0,0,24
6,6583,4,,1.96,3,   boost,93.65,84506,1504.82,183.26,     NaN,33.7,4,3.98,3.99,0,0,0,64.15,64.39,0,0,0,0,    NaN,4.01,0,0,0,0,1,1,9,32.9394322,-106.9124595,1394,2024,6,21,22,56,51,20,21,243,11,1.7,0.9,1.4,0,0,0,0,0,0,0,29,0,22,0,0,0,0,9,0,0,0,0,0,27,0,23,26,0,0,21,29,0,0,0,24
6,6583,4,,1.97,3,   boost,94.14,84473,1508,186.44,     NaN,33.7,4,3.98,3.99,0,0,0,64.15,64.39,0,0,0,0,    NaN,4.01,0,0,0,0,1,1,9,32.9394322,-106.9124595,1394,2024,6,21,22,56,51,20,21,243,11,1.7,0.9,1.4,0,0,0,0,0,0,0,29,0,22,0,0,0,0,9,0,0,0,0,0,27,0,23,26,0,0,21,29,0,0,0,24
6,6583,4,,1.98,3,   boost,96.6,84455,1509.74,188.18,     NaN,33.7,4,3.98,3.99,0,0,0,64.15,64.39,0,0,0,0,    NaN,4.01,0,0,0,0,1,1,9,32.9394322,-106.9124595,1394,2024,6,21,22,56,51,20,21,243,11,1.7,0.9,1.4,0,0,0,0,0,0,0,29,0,22,0,0,0,0,9,0,0,0,0,0,27,0,23,26,0,0,21,29,0,0,0,24
6,6583,4,,1.99,3,   boost,93.65,84436,1511.57,190.01,     NaN,33.7,4,3.98,3.99,0,0,0,64.15,64.39,0,0,0,0,    NaN,4.01,0,0,0,0,1,1,9,32.9394322,-106.9124595,1394,2024,6,21,22,56,51,20,21,243,11,1.7,0.9,1.4,0,0,0,0,0,0,0,29,0,22,0,0,0,0,9,0,0,0,0,0,27,0,23,26,0,0,21,29,0,0,0,24
6,6583,4,,2,3,   boost,91.69,84414,1513.69,192.13,     NaN,33.7,4,3.98,3.99,0,0,0,64.15,64.39,0,0,0,0,    NaN,4.01,0,0,0,0,1,1,9,32.9394322,-106.9124595,1394,2024,6,21,22,56,51,20,21,243,11,1.7,0.9,1.4,0,0,0,0,0,0,0,29,0,22,0,0,0,0,9,0,0,0,0,0,27,0,23,26,0,0,21,29,0,0,0,24
6,6583,4,,2.01,3,   boost,94.14,84387,1516.3,194.74,     NaN,33.7,4,3.98,3.99,0,0,0,64.15,64.39,0,0,0,0,    NaN,4.01,0,0,0,0,1,1,9,32.9394322,-106.9124595,1394,2024,6,21,22,56,51,20,21,243,11,1.7,0.9,1.4,0,0,0,0,0,0,0,29,0,22,0,0,0,0,9,0,0,0,0,0,27,0,23,26,0,0,21,29,0,0,0,24
6,6583,4,,2.02,3,   boost,94.63,84374,1517.56,196,     NaN,33.6,4,3.98,3.99,0,0,0,64.15,64.39,0,0,0,0,    NaN,4.01,0,0,0,0,1,1,9,32.9394322,-106.9124595,1394,2024,6,21,22,56,51,20,21,243,11,1.7,0.9,1.4,0,0,0,0,0,0,0,29,0,22,0,0,0,0,9,0,0,0,0,0,27,0,23,26,0,0,21,29,0,0,0,24
6,6583,4,,2.03,3,   boost,95.61,84337,1521.13,199.57,     NaN,33.6,4,3.98,3.99,0,0,0,64.15,64.39,0,0,0,0,    NaN,4.01,0,0,0,0,1,1,9,32.9394322,-106.9124595,1394,2024,6,21,22,56,51,20,21,243,11,1.7,0.9,1.4,0,0,0,0,0,0,0,29,0,22,0,0,0,0,9,0,0,0,0,0,27,0,23,26,0,0,21,29,0,0,0,24
6,6583,4,,2.04,3,   boost,92.67,84342,1520.65,199.09,     NaN,33.6,4,3.98,3.99,0,0,0,64.15,64.39,0,0,0,0,    NaN,4.01,0,0,0,0,1,1,9,32.9394322,-106.9124595,1394,2024,6,21,22,56,51,20,21,243,11,1.7,0.9,1.4,0,0,0,0,0,0,0,29,0,22,0,0,0,0,9,0,0,0,0,0,27,0,23,26,0,0,21,29,0,0,0,24
6,6583,4,,2.05,3,   boost,95.61,84328,1522,200.44,     NaN,33.7,4,3.98,3.99,0,0,0,64.15,64.39,0,0,0,0,    NaN,4.01,0,0,0,0,1,1,9,32.9394322,-106.9124595,1394,2024,6,21,22,56,51,20,21,243,11,1.7,0.9,1.4,0,0,0,0,0,0,0,29,0,22,0,0,0,0,9,0,0,0,0,0,27,0,23,26,0,0,21,29,0,0,0,24
6,6583,4,,2.06,3,   boost,94.14,84303,1524.41,202.85,     NaN,33.6,4,3.98,3.99,0,0,0,64.15,64.39,0,0,0,0,    NaN,4.01,0,0,0,0,1,1,8,32.939119,-106.9129891,1412,2024,6,21,22,56,52,81,84,237,15,1.8,0.9,1.5,0,0,0,0,0,0,0,18,0,18,0,0,0,0,8,0,0,0,0,0,31,0,19,22,0,0,23,18,0,0,0,20
6,6583,4,,2.06,3,   boost,94.14,84303,1524.41,202.85,     NaN,33.6,4,3.98,3.99,0,0,0,64.15,64.39,0,0,0,0,    NaN,4.01,0,0,0,0,1,1,8,32.939119,-106.9129891,1412,2024,6,21,22,56,52,81,84,237,15,1.8,0.9,1.5,0,0,0,0,0,0,0,18,0,18,0,0,0,0,8,0,0,0,0,0,31,0,19,22,0,0,23,18,0,0,0,20
6,6583,4,,2.06,3,   boost,94.14,84303,1524.41,202.85,     NaN,33.6,4,3.98,3.99,0,0,0,64.15,64.39,0,0,0,0,    NaN,4.01,0,0,0,0,1,1,8,32.939119,-106.9129891,1412,2024,6,21,22,56,52,81,84,237,15,1.8,0.9,1.5,0,0,0,0,0,0,0,18,0,18,0,0,0,0,8,0,0,0,0,0,31,0,19,22,0,0,23,18,0,0,0,20
6,6583,4,,2.07,3,   boost,98.07,84286,1526.06,204.5,     NaN,33.6,4,3.98,3.99,0,0,0,64.15,64.39,0,0,0,0,    NaN,4.01,0,0,0,0,1,1,8,32.939119,-106.9129891,1412,2024,6,21,22,56,52,81,84,237,15,1.8,0.9,1.5,0,0,0,0,0,0,0,18,0,18,0,0,0,0,8,0,0,0,0,0,31,0,19,22,0,0,23,18,0,0,0,20
6,6583,4,,2.08,3,   boost,92.18,84269,1527.7,206.14,     NaN,33.6,4,3.98,3.99,0,0,0,64.15,64.39,0,0,0,0,    NaN,4.01,0,0,0,0,1,1,8,32.939119,-106.9129891,1412,2024,6,21,22,56,52,81,84,237,15,1.8,0.9,1.5,0,0,0,0,0,0,0,18,0,18,0,0,0,0,8,0,0,0,0,0,31,0,19,22,0,0,23,18,0,0,0,20
6,6583,4,,2.09,3,   boost,94.14,84243,1530.21,208.65,     NaN,33.6,4,3.98,3.99,0,0,0,64.15,64.39,0,0,0,0,    NaN,4.01,0,0,0,0,1,1,8,32.939119,-106.9129891,1412,2024,6,21,22,56,52,81,84,237,15,1.8,0.9,1.5,0,0,0,0,0,0,0,18,0,18,0,0,0,0,8,0,0,0,0,0,31,0,19,22,0,0,23,18,0,0,0,20
6,6583,4,,2.1,3,   boost,95.12,84218,1532.63,211.07,     NaN,33.7,4,3.98,3.99,0,0,0,64.15,64.39,0,0,0,0,    NaN,4.01,0,0,0,0,1,1,8,32.939119,-106.9129891,1412,2024,6,21,22,56,52,81,84,237,15,1.8,0.9,1.5,0,0,0,0,0,0,0,18,0,18,0,0,0,0,8,0,0,0,0,0,31,0,19,22,0,0,23,18,0,0,0,20
6,6583,4,,2.11,3,   boost,90.22,84209,1533.5,211.94,     NaN,33.7,4,3.98,3.99,0,0,0,64.15,64.39,0,0,0,0,    NaN,4.01,0,0,0,0,1,1,8,32.939119,-106.9129891,1412,2024,6,21,22,56,52,81,84,237,15,1.8,0.9,1.5,0,0,0,0,0,0,0,18,0,18,0,0,0,0,8,0,0,0,0,0,31,0,19,22,0,0,23,18,0,0,0,20
6,6583,4,,2.12,3,   boost,91.69,84182,1536.11,214.55,     NaN,33.7,4,3.98,3.99,0,0,0,64.15,64.39,0,0,0,0,    NaN,4.01,0,0,0,0,1,1,8,32.939119,-106.9129891,1412,2024,6,21,22,56,52,81,84,237,15,1.8,0.9,1.5,0,0,0,0,0,0,0,18,0,18,0,0,0,0,8,0,0,0,0,0,31,0,19,22,0,0,23,18,0,0,0,20
6,6583,4,,2.13,3,   boost,92.18,84162,1538.04,216.48,     NaN,33.6,4,3.98,3.99,0,0,0,64.15,64.39,0,0,0,0,    NaN,4.01,0,0,0,0,1,1,8,32.939119,-106.9129891,1412,2024,6,21,22,56,52,81,84,237,15,1.8,0.9,1.5,0,0,0,0,0,0,0,18,0,18,0,0,0,0,8,0,0,0,0,0,31,0,19,22,0,0,23,18,0,0,0,20
6,6583,4,,2.14,3,   boost,91.2,84161,1538.14,216.58,     NaN,33.6,4,3.98,3.99,0,0,0,64.15,64.39,0,0,0,0,    NaN,4.01,0,0,0,0,1,1,8,32.939119,-106.9129891,1412,2024,6,21,22,56,52,81,84,237,15,1.8,0.9,1.5,0,0,0,0,0,0,0,18,0,18,0,0,0,0,8,0,0,0,0,0,31,0,19,22,0,0,23,18,0,0,0,20
6,6583,4,,2.15,3,   boost,92.67,84117,1542.4,220.84,     NaN,33.6,4,3.98,3.99,0,0,0,64.15,64.39,0,0,0,0,    NaN,4.01,0,0,0,0,1,1,8,32.939119,-106.9129891,1412,2024,6,21,22,56,52,81,84,237,15,1.8,0.9,1.5,0,0,0,0,0,0,0,18,0,18,0,0,0,0,8,0,0,0,0,0,31,0,19,22,0,0,23,18,0,0,0,20
6,6583,4,,2.16,3,   boost,86.3,84113,1542.79,221.23,     NaN,33.7,4,3.98,3.99,0,0,0,64.15,64.39,0,0,0,0,    NaN,4.01,0,0,0,0,1,1,8,32.939119,-106.9129891,1412,2024,6,21,22,56,52,81,84,237,15,1.8,0.9,1.5,0,0,0,0,0,0,0,18,0,18,0,0,0,0,8,0,0,0,0,0,31,0,19,22,0,0,23,18,0,0,0,20
6,6583,4,,2.17,3,   boost,90.22,84091,1544.91,223.35,     NaN,33.7,4,3.98,3.99,0,0,0,64.15,64.39,0,0,0,0,    NaN,4.01,0,0,0,0,1,1,8,32.939119,-106.9129891,1412,2024,6,21,22,56,52,81,84,237,15,1.8,0.9,1.5,0,0,0,0,0,0,0,18,0,18,0,0,0,0,8,0,0,0,0,0,31,0,19,22,0,0,23,18,0,0,0,20
6,6583,4,,2.18,3,   boost,91.2,84064,1547.53,225.97,     NaN,33.6,4,3.98,3.99,0,0,0,64.15,64.39,0,0,0,0,    NaN,4.01,0,0,0,0,1,1,8,32.939119,-106.9129891,1412,2024,6,21,22,56,52,81,84,237,15,1.8,0.9,1.5,0,0,0,0,0,0,0,18,0,18,0,0,0,0,8,0,0,0,0,0,31,0,19,22,0,0,23,18,0,0,0,20
6,6583,4,,2.19,3,   boost,87.77,84044,1549.47,227.91,     NaN,33.7,4,3.98,3.99,0,0,0,64.15,64.39,0,0,0,0,    NaN,4.01,0,0,0,0,1,1,8,32.939119,-106.9129891,1412,2024,6,21,22,56,52,81,84,237,15,1.8,0.9,1.5,0,0,0,0,0,0,0,18,0,18,0,0,0,0,8,0,0,0,0,0,31,0,19,22,0,0,23,18,0,0,0,20
6,6583,4,,2.2,3,   boost,91.69,84016,1552.18,230.62,     NaN,33.6,4,3.98,3.99,0,0,0,64.15,64.39,0,0,0,0,    NaN,4.01,0,0,0,0,1,1,8,32.939119,-106.9129891,1412,2024,6,21,22,56,52,81,84,237,15,1.8,0.9,1.5,0,0,0,0,0,0,0,18,0,18,0,0,0,0,8,0,0,0,0,0,31,0,19,22,0,0,23,18,0,0,0,20
6,6583,4,,2.21,3,   boost,89.73,84010,1552.76,231.2,     NaN,33.6,4,3.98,3.99,0,0,0,64.15,64.39,0,0,0,0,    NaN,4.01,0,0,0,0,1,1,8,32.939119,-106.9129891,1412,2024,6,21,22,56,52,81,84,237,15,1.8,0.9,1.5,0,0,0,0,0,0,0,18,0,18,0,0,0,0,8,0,0,0,0,0,31,0,19,22,0,0,23,18,0,0,0,20
6,6583,4,,2.22,3,   boost,89.24,83995,1554.21,232.65,     NaN,33.7,4,3.98,3.99,0,0,0,64.15,64.39,0,0,0,0,    NaN,4.01,0,0,0,0,1,1,8,32.939119,-106.9129891,1412,2024,6,21,22,56,52,81,84,237,15,1.8,0.9,1.5,0,0,0,0,0,0,0,18,0,18,0,0,0,0,8,0,0,0,0,0,31,0,19,22,0,0,23,18,0,0,0,20
6,6583,4,,2.23,3,   boost,90.71,83955,1558.09,236.53,     NaN,33.7,4,3.98,3.99,0,0,0,64.15,64.39,0,0,0,0,    NaN,4.01,0,0,0,0,1,1,8,32.939119,-106.9129891,1412,2024,6,21,22,56,52,81,84,237,15,1.8,0.9,1.5,0,0,0,0,0,0,0,18,0,18,0,0,0,0,8,0,0,0,0,0,31,0,19,22,0,0,23,18,0,0,0,20
6,6583,4,,2.24,3,   boost,85.32,83937,1559.83,238.27,     NaN,33.6,4,3.98,3.99,0,0,0,64.15,64.39,0,0,0,0,    NaN,4.01,0,0,0,0,1,1,8,32.939119,-106.9129891,1412,2024,6,21,22,56,52,81,84,237,15,1.8,0.9,1.5,0,0,0,0,0,0,0,18,0,18,0,0,0,0,8,0,0,0,0,0,31,0,19,22,0,0,23,18,0,0,0,20
6,6583,4,,2.25,3,   boost,86.79,83898,1563.62,242.06,     NaN,33.6,4,3.98,3.99,0,0,0,64.15,64.39,0,0,0,0,    NaN,4.01,0,0,0,0,1,1,8,32.939119,-106.9129891,1412,2024,6,21,22,56,52,81,84,237,15,1.8,0.9,1.5,0,0,0,0,0,0,0,18,0,18,0,0,0,0,8,0,0,0,0,0,31,0,19,22,0,0,23,18,0,0,0,20
6,6583,4,,2.26,3,   boost,86.79,83898,1563.62,242.06,     NaN,33.7,3.99,3.98,3.99,0,0,0,64.15,64.39,0,0,0,0,    NaN,4,0,0,0.07,0,1,1,8,32.939119,-106.9129891,1412,2024,6,21,22,56,52,81,84,237,15,1.8,0.9,1.5,0,0,0,0,0,0,0,18,0,18,0,0,0,0,8,0,0,0,0,0,31,0,19,22,0,0,23,18,0,0,0,20
6,6583,4,,2.26,3,   boost,86.79,83898,1563.62,242.06,     NaN,33.7,3.99,3.98,3.99,0,0,0,64.15,64.39,0,0,0,0,    NaN,4,0,0,0.07,0,1,1,8,32.939119,-106.9129891,1412,2024,6,21,22,56,52,81,84,237,15,1.8,0.9,1.5,0,0,0,0,0,0,0,18,0,18,0,0,0,0,8,0,0,0,0,0,31,0,19,22,0,0,23,18,0,0,0,20
6,6583,4,,2.27,3,   boost,86.3,83873,1566.04,244.48,     NaN,33.6,3.99,3.98,3.99,0.09,0,0,64.15,64.27,0,0,0,0,    NaN,4,0,0,0.07,0,1,1,8,32.939119,-106.9129891,1412,2024,6,21,22,56,52,81,84,237,15,1.8,0.9,1.5,0,0,0,0,0,0,0,18,0,18,0,0,0,0,8,0,0,0,0,0,31,0,19,22,0,0,23,18,0,0,0,20
6,6583,4,,2.28,3,   boost,89.24,83863,1567.01,245.45,     NaN,33.7,3.99,3.98,3.99,0.09,0,0,64.15,64.27,0,0,0,0,    NaN,4,0,0,0.07,0,1,1,8,32.939119,-106.9129891,1412,2024,6,21,22,56,52,81,84,237,15,1.8,0.9,1.5,0,0,0,0,0,0,0,18,0,18,0,0,0,0,8,0,0,0,0,0,31,0,19,22,0,0,23,18,0,0,0,20
6,6583,4,,2.29,3,   boost,91.69,83839,1569.34,247.78,     NaN,33.6,3.99,3.98,3.99,0.09,0,0,64.15,64.27,0,0,0,0,    NaN,4,0,0,0.07,0,1,1,8,32.939119,-106.9129891,1412,2024,6,21,22,56,52,81,84,237,15,1.8,0.9,1.5,0,0,0,0,0,0,0,18,0,18,0,0,0,0,8,0,0,0,0,0,31,0,19,22,0,0,23,18,0,0,0,20
6,6583,4,,2.3,3,   boost,86.3,83814,1571.77,250.21,     NaN,33.6,3.99,3.98,3.99,0.09,0,0,64.15,64.27,0,0,0,0,    NaN,4,0,0,0.07,0,1,1,8,32.939119,-106.9129891,1412,2024,6,21,22,56,52,81,84,237,15,1.8,0.9,1.5,0,0,0,0,0,0,0,18,0,18,0,0,0,0,8,0,0,0,0,0,31,0,19,22,0,0,23,18,0,0,0,20
6,6583,4,,2.31,3,   boost,90.22,83804,1572.74,251.18,     NaN,33.7,3.99,3.98,3.99,0.09,0,0,64.15,64.27,0,0,0,0,    NaN,4,0,0,0.07,0,1,1,8,32.939119,-106.9129891,1412,2024,6,21,22,56,52,81,84,237,15,1.8,0.9,1.5,0,0,0,0,0,0,0,18,0,18,0,0,0,0,8,0,0,0,0,0,31,0,19,22,0,0,23,18,0,0,0,20
6,6583,4,,2.32,3,   boost,83.85,83763,1576.72,255.16,     NaN,33.7,3.99,3.98,3.99,0.09,0,0,64.15,64.27,0,0,0,0,    NaN,4,0,0,0.07,0,1,1,8,32.939119,-106.9129891,1412,2024,6,21,22,56,52,81,84,237,15,1.8,0.9,1.5,0,0,0,0,0,0,0,18,0,18,0,0,0,0,8,0,0,0,0,0,31,0,19,22,0,0,23,18,0,0,0,20
6,6583,4,,2.33,3,   boost,87.28,83756,1577.4,255.84,     NaN,33.6,3.99,3.98,3.99,0.09,0,0,64.15,64.27,0,0,0,0,    NaN,4,0,0,0.07,0,1,1,8,32.939119,-106.9129891,1412,2024,6,21,22,56,52,81,84,237,15,1.8,0.9,1.5,0,0,0,0,0,0,0,18,0,18,0,0,0,0,8,0,0,0,0,0,31,0,19,22,0,0,23,18,0,0,0,20
6,6583,4,,2.34,3,   boost,90.71,83723,1580.6,259.04,     NaN,33.6,3.99,3.98,3.99,0.09,0,0,64.15,64.27,0,0,0,0,    NaN,4,0,0,0.07,0,1,1,8,32.939119,-106.9129891,1412,2024,6,21,22,56,52,81,84,237,15,1.8,0.9,1.5,0,0,0,0,0,0,0,18,0,18,0,0,0,0,8,0,0,0,0,0,31,0,19,22,0,0,23,18,0,0,0,20
6,6583,4,,2.35,3,   boost,87.28,83707,1582.16,260.6,     NaN,33.7,3.99,3.98,3.99,0.09,0,0,64.15,64.27,0,0,0,0,    NaN,4,0,0,0.07,0,1,1,8,32.939119,-106.9129891,1412,2024,6,21,22,56,52,81,84,237,15,1.8,0.9,1.5,0,0,0,0,0,0,0,18,0,18,0,0,0,0,8,0,0,0,0,0,31,0,19,22,0,0,23,18,0,0,0,20
6,6583,4,,2.36,3,   boost,89.24,83690,1583.81,262.25,     NaN,33.6,3.99,3.98,3.99,0.09,0,0,64.15,64.27,0,0,0,0,    NaN,4,0,0,0.07,0,1,1,8,32.939119,-106.9129891,1412,2024,6,21,22,56,52,81,84,237,15,1.8,0.9,1.5,0,0,0,0,0,0,0,18,0,18,0,0,0,0,8,0,0,0,0,0,31,0,19,22,0,0,23,18,0,0,0,20
6,6583,4,,2.37,3,   boost,83.36,83680,1584.78,263.22,     NaN,33.6,3.99,3.98,3.99,0.09,0,0,64.15,64.27,0,0,0,0,    NaN,4,0,0,0.07,0,1,1,8,32.939119,-106.9129891,1412,2024,6,21,22,56,52,81,84,237,15,1.8,0.9,1.5,0,0,0,0,0,0,0,18,0,18,0,0,0,0,8,0,0,0,0,0,31,0,19,22,0,0,23,18,0,0,0,20
6,6583,4,,2.38,3,   boost,89.73,83650,1587.7,266.14,     NaN,33.6,3.99,3.98,3.99,0.09,0,0,64.15,64.27,0,0,0,0,    NaN,4,0,0,0.07,0,1,1,8,32.939119,-106.9129891,1412,2024,6,21,22,56,52,81,84,237,15,1.8,0.9,1.5,0,0,0,0,0,0,0,18,0,18,0,0,0,0,8,0,0,0,0,0,31,0,19,22,0,0,23,18,0,0,0,20
6,6583,4,,2.39,3,   boost,85.32,83617,1590.91,269.35,     NaN,33.6,3.99,3.98,3.99,0.09,0,0,64.15,64.27,0,0,0,0,    NaN,4,0,0,0.07,0,1,1,8,32.939119,-106.9129891,1412,2024,6,21,22,56,52,81,84,237,15,1.8,0.9,1.5,0,0,0,0,0,0,0,18,0,18,0,0,0,0,8,0,0,0,0,0,31,0,19,22,0,0,23,18,0,0,0,20
6,6583,4,,2.4,3,   boost,85.81,83589,1593.63,272.07,     NaN,33.6,3.99,3.98,3.99,0.09,0,0,64.15,64.27,0,0,0,0,    NaN,4,0,0,0.07,0,1,1,8,32.939119,-106.9129891,1412,2024,6,21,22,56,52,81,84,237,15,1.8,0.9,1.5,0,0,0,0,0,0,0,18,0,18,0,0,0,0,8,0,0,0,0,0,31,0,19,22,0,0,23,18,0,0,0,20
6,6583,4,,2.41,3,   boost,84.83,83539,1598.49,276.93,     NaN,33.6,3.99,3.98,3.99,0.09,0,0,64.15,64.27,0,0,0,0,    NaN,4,0,0,0.07,0,1,1,8,32.939119,-106.9129891,1412,2024,6,21,22,56,52,81,84,237,15,1.8,0.9,1.5,0,0,0,0,0,0,0,18,0,18,0,0,0,0,8,0,0,0,0,0,31,0,19,22,0,0,23,18,0,0,0,20
6,6583,4,,2.42,3,   boost,83.85,83510,1601.32,279.76,     NaN,33.6,3.99,3.98,3.99,0.09,0,0,64.15,64.27,0,0,0,0,    NaN,4,0,0,0.07,0,1,1,8,32.939119,-106.9129891,1412,2024,6,21,22,56,52,81,84,237,15,1.8,0.9,1.5,0,0,0,0,0,0,0,18,0,18,0,0,0,0,8,0,0,0,0,0,31,0,19,22,0,0,23,18,0,0,0,20
6,6583,4,,2.43,3,   boost,85.81,83458,1606.38,284.82,     NaN,33.7,3.99,3.98,3.99,0.09,0,0,64.15,64.27,0,0,0,0,    NaN,4,0,0,0.07,0,1,1,8,32.939119,-106.9129891,1412,2024,6,21,22,56,52,81,84,237,15,1.8,0.9,1.5,0,0,0,0,0,0,0,18,0,18,0,0,0,0,8,0,0,0,0,0,31,0,19,22,0,0,23,18,0,0,0,20
6,6583,4,,2.44,3,   boost,83.85,83429,1609.21,287.65,     NaN,33.6,3.99,3.98,3.99,0.09,0,0,64.15,64.27,0,0,0,0,    NaN,4,0,0,0.07,0,1,1,8,32.939119,-106.9129891,1412,2024,6,21,22,56,52,81,84,237,15,1.8,0.9,1.5,0,0,0,0,0,0,0,18,0,18,0,0,0,0,8,0,0,0,0,0,31,0,19,22,0,0,23,18,0,0,0,20
6,6583,4,,2.45,3,   boost,86.3,83413,1610.77,289.21,     NaN,33.6,3.99,3.98,3.99,0.09,0,0,64.15,64.27,0,0,0,0,    NaN,4,0,0,0.07,0,1,1,8,32.939119,-106.9129891,1412,2024,6,21,22,56,52,81,84,237,15,1.8,0.9,1.5,0,0,0,0,0,0,0,18,0,18,0,0,0,0,8,0,0,0,0,0,31,0,19,22,0,0,23,18,0,0,0,20
6,6583,4,,2.46,3,   boost,89.24,83380,1613.98,292.42,     NaN,33.7,3.99,3.98,3.99,0.09,0,0,64.15,64.27,0,0,0,0,    NaN,4,0,0,0.07,0,1,1,8,32.939119,-106.9129891,1412,2024,6,21,22,56,52,81,84,237,15,1.8,0.9,1.5,0,0,0,0,0,0,0,18,0,18,0,0,0,0,8,0,0,0,0,0,31,0,19,22,0,0,23,18,0,0,0,20
6,6583,4,,2.47,3,   boost,84.34,83358,1616.13,294.57,     NaN,33.6,3.99,3.98,3.99,0.09,0,0,64.15,64.27,0,0,0,0,    NaN,4,0,0,0.07,0,1,1,8,32.939119,-106.9129891,1412,2024,6,21,22,56,52,81,84,237,15,1.8,0.9,1.5,0,0,0,0,0,0,0,18,0,18,0,0,0,0,8,0,0,0,0,0,31,0,19,22,0,0,23,18,0,0,0,20
6,6583,4,,2.48,3,   boost,83.85,83322,1619.64,298.08,     NaN,33.7,3.99,3.98,3.99,0.09,0,0,64.15,64.27,0,0,0,0,    NaN,4,0,0,0.07,0,1,1,8,32.939119,-106.9129891,1412,2024,6,21,22,56,52,81,84,237,15,1.8,0.9,1.5,0,0,0,0,0,0,0,18,0,18,0,0,0,0,8,0,0,0,0,0,31,0,19,22,0,0,23,18,0,0,0,20
6,6583,4,,2.49,3,   boost,83.85,83306,1621.2,299.64,     NaN,33.7,3.99,3.98,3.99,0.09,0,0,64.15,64.27,0,0,0,0,    NaN,4,0,0,0.07,0,1,1,8,32.939119,-106.9129891,1412,2024,6,21,22,56,52,81,84,237,15,1.8,0.9,1.5,0,0,0,0,0,0,0,18,0,18,0,0,0,0,8,0,0,0,0,0,31,0,19,22,0,0,23,18,0,0,0,20
6,6583,4,,2.5,3,   boost,85.81,83289,1622.86,301.3,     NaN,33.6,3.99,3.98,3.99,0.09,0,0,64.15,64.27,0,0,0,0,    NaN,4,0,0,0.07,0,1,1,8,32.939119,-106.9129891,1412,2024,6,21,22,56,52,81,84,237,15,1.8,0.9,1.5,0,0,0,0,0,0,0,18,0,18,0,0,0,0,8,0,0,0,0,0,31,0,19,22,0,0,23,18,0,0,0,20
6,6583,4,,2.51,3,   boost,83.36,83272,1624.51,302.95,     NaN,33.7,3.99,3.98,3.99,0.09,0,0,64.15,64.27,0,0,0,0,    NaN,4,0,0,0.07,0,1,1,8,32.939119,-106.9129891,1412,2024,6,21,22,56,52,81,84,237,15,1.8,0.9,1.5,0,0,0,0,0,0,0,18,0,18,0,0,0,0,8,0,0,0,0,0,31,0,19,22,0,0,23,18,0,0,0,20
6,6583,4,,2.52,3,   boost,78.45,83245,1627.15,305.59,     NaN,33.6,3.99,3.98,3.99,0.09,0,0,64.15,64.27,0,0,0,0,    NaN,4,0,0,0.07,0,1,1,8,32.939119,-106.9129891,1412,2024,6,21,22,56,52,81,84,237,15,1.8,0.9,1.5,0,0,0,0,0,0,0,18,0,18,0,0,0,0,8,0,0,0,0,0,31,0,19,22,0,0,23,18,0,0,0,20
6,6583,4,,2.53,3,   boost,79.92,83206,1630.96,309.4,     NaN,33.6,3.99,3.98,3.99,0.09,0,0,64.15,64.27,0,0,0,0,    NaN,4,0,0,0.07,0,1,1,8,32.939119,-106.9129891,1412,2024,6,21,22,56,52,81,84,237,15,1.8,0.9,1.5,0,0,0,0,0,0,0,18,0,18,0,0,0,0,8,0,0,0,0,0,31,0,19,22,0,0,23,18,0,0,0,20
6,6583,4,,2.54,3,   boost,81.4,83196,1631.93,310.37,     NaN,33.6,3.99,3.98,3.99,0.09,0,0,64.15,64.27,0,0,0,0,    NaN,4,0,0,0.07,0,1,1,8,32.939119,-106.9129891,1412,2024,6,21,22,56,52,81,84,237,15,1.8,0.9,1.5,0,0,0,0,0,0,0,18,0,18,0,0,0,0,8,0,0,0,0,0,31,0,19,22,0,0,23,18,0,0,0,20
6,6583,4,,2.55,3,   boost,80.9,83168,1634.67,313.11,     NaN,33.6,3.99,3.98,3.99,0.09,0,0,64.15,64.27,0,0,0,0,    NaN,4,0,0,0.07,0,1,1,8,32.939119,-106.9129891,1412,2024,6,21,22,56,52,81,84,237,15,1.8,0.9,1.5,0,0,0,0,0,0,0,18,0,18,0,0,0,0,8,0,0,0,0,0,31,0,19,22,0,0,23,18,0,0,0,20
6,6583,4,,2.56,3,   boost,79.92,83153,1636.13,314.57,     NaN,33.7,3.99,3.98,3.99,0.09,0,0,64.15,64.27,0,0,0,0,    NaN,4,0,0,0.07,0,1,1,8,32.939119,-106.9129891,1412,2024,6,21,22,56,52,81,84,237,15,1.8,0.9,1.5,0,0,0,0,0,0,0,18,0,18,0,0,0,0,8,0,0,0,0,0,31,0,19,22,0,0,23,18,0,0,0,20
6,6583,4,,2.57,3,   boost,81.89,83131,1638.28,316.72,     NaN,33.6,3.99,3.98,3.99,0.09,0,0,64.15,64.27,0,0,0,0,    NaN,4,0,0,0.07,0,1,1,8,32.939119,-106.9129891,1412,2024,6,21,22,56,52,81,84,237,15,1.8,0.9,1.5,0,0,0,0,0,0,0,18,0,18,0,0,0,0,8,0,0,0,0,0,31,0,19,22,0,0,23,18,0,0,0,20
6,6583,4,,2.58,3,   boost,80.41,83098,1641.51,319.95,     NaN,33.6,4.01,3.99,4,0.09,0,0,64.15,64.27,0,0,0,0,    NaN,4,0,0,0.07,0,1,1,8,32.939119,-106.9129891,1412,2024,6,21,22,56,52,81,84,237,15,1.8,0.9,1.5,0,0,0,0,0,0,0,18,0,18,0,0,0,0,8,0,0,0,0,0,31,0,19,22,0,0,23,18,0,0,0,20
6,6583,4,,2.58,3,   boost,80.41,83098,1641.51,319.95,     NaN,33.6,4.01,3.99,4,0.09,0,0,64.15,64.27,0,0,0,0,    NaN,4,0,0,0.07,0,1,1,8,32.939119,-106.9129891,1412,2024,6,21,22,56,52,81,84,237,15,1.8,0.9,1.5,0,0,0,0,0,0,0,18,0,18,0,0,0,0,8,0,0,0,0,0,31,0,19,22,0,0,23,18,0,0,0,20
6,6583,4,,2.59,3,   boost,77.47,83072,1644.05,322.49,     NaN,33.6,4.01,3.99,4,0.09,0,0,64.21,64.52,0,0,0,0,    NaN,4,0,0,0.07,0,1,1,8,32.939119,-106.9129891,1412,2024,6,21,22,56,52,81,84,237,15,1.8,0.9,1.5,0,0,0,0,0,0,0,18,0,18,0,0,0,0,8,0,0,0,0,0,31,0,19,22,0,0,23,18,0,0,0,20
6,6583,4,,2.6,3,   boost,83.36,83051,1646.1,324.54,     NaN,33.6,4.01,3.99,4,0.09,0,0,64.21,64.52,0,0,0,0,    NaN,4,0,0,0.07,0,1,1,8,32.939119,-106.9129891,1412,2024,6,21,22,56,52,81,84,237,15,1.8,0.9,1.5,0,0,0,0,0,0,0,18,0,18,0,0,0,0,8,0,0,0,0,0,31,0,19,22,0,0,23,18,0,0,0,20
6,6583,4,,2.61,3,   boost,80.41,83023,1648.84,327.28,     NaN,33.6,4.01,3.99,4,0.09,0,0,64.21,64.52,0,0,0,0,    NaN,4,0,0,0.07,0,1,1,8,32.939119,-106.9129891,1412,2024,6,21,22,56,52,81,84,237,15,1.8,0.9,1.5,0,0,0,0,0,0,0,18,0,18,0,0,0,0,8,0,0,0,0,0,31,0,19,22,0,0,23,18,0,0,0,20
6,6583,4,,2.62,3,   boost,85.81,83004,1650.7,329.14,     NaN,33.6,4.01,3.99,4,0.09,0,0,64.21,64.52,0,0,0,0,    NaN,4,0,0,0.07,0,1,1,8,32.939119,-106.9129891,1412,2024,6,21,22,56,52,81,84,237,15,1.8,0.9,1.5,0,0,0,0,0,0,0,18,0,18,0,0,0,0,8,0,0,0,0,0,31,0,19,22,0,0,23,18,0,0,0,20
6,6583,4,,2.63,3,   boost,82.87,82983,1652.75,331.19,     NaN,33.6,4.01,3.99,4,0.09,0,0,64.21,64.52,0,0,0,0,    NaN,4,0,0,0.07,0,1,1,8,32.939119,-106.9129891,1412,2024,6,21,22,56,52,81,84,237,15,1.8,0.9,1.5,0,0,0,0,0,0,0,18,0,18,0,0,0,0,8,0,0,0,0,0,31,0,19,22,0,0,23,18,0,0,0,20
6,6583,4,,2.64,3,   boost,80.41,82965,1654.51,332.95,     NaN,33.6,4.01,3.99,4,0.09,0,0,64.21,64.52,0,0,0,0,    NaN,4,0,0,0.07,0,1,1,8,32.939119,-106.9129891,1412,2024,6,21,22,56,52,81,84,237,15,1.8,0.9,1.5,0,0,0,0,0,0,0,18,0,18,0,0,0,0,8,0,0,0,0,0,31,0,19,22,0,0,23,18,0,0,0,20
6,6583,4,,2.65,3,   boost,82.87,82936,1657.35,335.79,     NaN,33.6,4.01,3.99,4,0.09,0,0,64.21,64.52,0,0,0,0,    NaN,4,0,0,0.07,0,1,1,8,32.939119,-106.9129891,1412,2024,6,21,22,56,52,81,84,237,15,1.8,0.9,1.5,0,0,0,0,0,0,0,18,0,18,0,0,0,0,8,0,0,0,0,0,31,0,19,22,0,0,23,18,0,0,0,20
6,6583,4,,2.66,3,   boost,77.47,82912,1659.7,338.14,     NaN,33.6,4.01,3.99,4,0.09,0,0,64.21,64.52,0,0,0,0,    NaN,4,0,0,0.07,0,1,1,8,32.939119,-106.9129891,1412,2024,6,21,22,56,52,81,84,237,15,1.8,0.9,1.5,0,0,0,0,0,0,0,18,0,18,0,0,0,0,8,0,0,0,0,0,31,0,19,22,0,0,23,18,0,0,0,20
6,6583,4,,2.67,3,   boost,83.36,82882,1662.64,341.08,     NaN,33.6,4.01,3.99,4,0.09,0,0,64.21,64.52,0,0,0,0,    NaN,4,0,0,0.07,0,1,1,8,32.939119,-106.9129891,1412,2024,6,21,22,56,52,81,84,237,15,1.8,0.9,1.5,0,0,0,0,0,0,0,18,0,18,0,0,0,0,8,0,0,0,0,0,31,0,19,22,0,0,23,18,0,0,0,20
6,6583,4,,2.68,3,   boost,81.89,82854,1665.38,343.82,     NaN,33.6,4.01,3.99,4,0.09,0,0,64.21,64.52,0,0,0,0,    NaN,4,0,0,0.07,0,1,1,8,32.939119,-106.9129891,1412,2024,6,21,22,56,52,81,84,237,15,1.8,0.9,1.5,0,0,0,0,0,0,0,18,0,18,0,0,0,0,8,0,0,0,0,0,31,0,19,22,0,0,23,18,0,0,0,20
6,6583,4,,2.69,3,   boost,83.36,82834,1667.34,345.78,     NaN,33.6,4.01,3.99,4,0.09,0,0,64.21,64.52,0,0,0,0,    NaN,4,0,0,0.07,0,1,1,8,32.939119,-106.9129891,1412,2024,6,21,22,56,52,81,84,237,15,1.8,0.9,1.5,0,0,0,0,0,0,0,18,0,18,0,0,0,0,8,0,0,0,0,0,31,0,19,22,0,0,23,18,0,0,0,20
6,6583,4,,2.7,3,   boost,83.36,82810,1669.7,348.14,     NaN,33.6,4.01,3.99,4,0.09,0,0,64.21,64.52,0,0,0,0,    NaN,4,0,0,0.07,0,1,1,8,32.939119,-106.9129891,1412,2024,6,21,22,56,52,81,84,237,15,1.8,0.9,1.5,0,0,0,0,0,0,0,18,0,18,0,0,0,0,8,0,0,0,0,0,31,0,19,22,0,0,23,18,0,0,0,20
6,6583,4,,2.71,3,   boost,83.85,82795,1671.17,349.61,     NaN,33.6,4.01,3.99,4,0.09,0,0,64.21,64.52,0,0,0,0,    NaN,4,0,0,0.07,0,1,1,8,32.939119,-106.9129891,1412,2024,6,21,22,56,52,81,84,237,15,1.8,0.9,1.5,0,0,0,0,0,0,0,18,0,18,0,0,0,0,8,0,0,0,0,0,31,0,19,22,0,0,23,18,0,0,0,20
6,6583,4,,2.72,3,   boost,83.85,82748,1675.78,354.22,     NaN,33.6,4.01,3.99,4,0.09,0,0,64.21,64.52,0,0,0,0,    NaN,4,0,0,0.07,0,1,1,8,32.939119,-106.9129891,1412,2024,6,21,22,56,52,81,84,237,15,1.8,0.9,1.5,0,0,0,0,0,0,0,18,0,18,0,0,0,0,8,0,0,0,0,0,31,0,19,22,0,0,23,18,0,0,0,20
6,6583,4,,2.73,3,   boost,79.92,82730,1677.54,355.98,     NaN,33.6,4.01,3.99,4,0.09,0,0,64.21,64.52,0,0,0,0,    NaN,4,0,0,0.07,0,1,1,8,32.939119,-106.9129891,1412,2024,6,21,22,56,52,81,84,237,15,1.8,0.9,1.5,0,0,0,0,0,0,0,18,0,18,0,0,0,0,8,0,0,0,0,0,31,0,19,22,0,0,23,18,0,0,0,20
6,6583,4,,2.74,3,   boost,77.47,82720,1678.52,356.96,     NaN,33.6,4.01,3.99,4,0.09,0,0,64.21,64.52,0,0,0,0,    NaN,4,0,0,0.07,0,1,1,8,32.939119,-106.9129891,1412,2024,6,21,22,56,52,81,84,237,15,1.8,0.9,1.5,0,0,0,0,0,0,0,18,0,18,0,0,0,0,8,0,0,0,0,0,31,0,19,22,0,0,23,18,0,0,0,20
6,6583,4,,2.75,3,   boost,84.83,82668,1683.62,362.06,     NaN,33.6,4.01,3.99,4,0.09,0,0,64.21,64.52,0,0,0,0,    NaN,4,0,0,0.07,0,1,1,8,32.939119,-106.9129891,1412,2024,6,21,22,56,52,81,84,237,15,1.8,0.9,1.5,0,0,0,0,0,0,0,18,0,18,0,0,0,0,8,0,0,0,0,0,31,0,19,22,0,0,23,18,0,0,0,20
6,6583,4,,2.76,3,   boost,83.36,82663,1684.12,362.56,     NaN,33.6,4.01,3.99,4,0.09,0,0,64.21,64.52,0,0,0,0,    NaN,4,0,0,0.07,0,1,1,8,32.939119,-106.9129891,1412,2024,6,21,22,56,52,81,84,237,15,1.8,0.9,1.5,0,0,0,0,0,0,0,18,0,18,0,0,0,0,8,0,0,0,0,0,31,0,19,22,0,0,23,18,0,0,0,20
6,6583,4,,2.77,3,   boost,81.4,82643,1686.08,364.52,     NaN,33.6,4.01,3.99,4,0.09,0,0,64.21,64.52,0,0,0,0,    NaN,4,0,0,0.07,0,1,1,8,32.939119,-106.9129891,1412,2024,6,21,22,56,52,81,84,237,15,1.8,0.9,1.5,0,0,0,0,0,0,0,18,0,18,0,0,0,0,8,0,0,0,0,0,31,0,19,22,0,0,23,18,0,0,0,20
6,6583,4,,2.78,3,   boost,75.51,82653,1685.1,363.54,     NaN,33.6,4.01,3.99,4,0.09,0,0,64.21,64.52,0,0,0,0,    NaN,4,0,0,0.07,0,1,1,8,32.939119,-106.9129891,1412,2024,6,21,22,56,52,81,84,237,15,1.8,0.9,1.5,0,0,0,0,0,0,0,18,0,18,0,0,0,0,8,0,0,0,0,0,31,0,19,22,0,0,23,18,0,0,0,20
6,6583,4,,2.79,3,   boost,80.41,82663,1684.12,362.56,     NaN,33.6,4.01,3.99,4,0.09,0,0,64.21,64.52,0,0,0,0,    NaN,4,0,0,0.07,0,1,1,8,32.939119,-106.9129891,1412,2024,6,21,22,56,52,81,84,237,15,1.8,0.9,1.5,0,0,0,0,0,0,0,18,0,18,0,0,0,0,8,0,0,0,0,0,31,0,19,22,0,0,23,18,0,0,0,20
6,6583,4,,2.8,3,   boost,78.45,82632,1687.16,365.6,     NaN,33.6,4.01,3.99,4,0.09,0,0,64.21,64.52,0,0,0,0,    NaN,4,0,0,0.07,0,1,1,8,32.939119,-106.9129891,1412,2024,6,21,22,56,52,81,84,237,15,1.8,0.9,1.5,0,0,0,0,0,0,0,18,0,18,0,0,0,0,8,0,0,0,0,0,31,0,19,22,0,0,23,18,0,0,0,20
6,6583,4,,2.81,3,   boost,71.1,82653,1685.1,363.54,     NaN,33.6,4.01,3.99,4,0.09,0,0,64.21,64.52,0,0,0,0,    NaN,4,0,0,0.07,0,1,1,8,32.939119,-106.9129891,1412,2024,6,21,22,56,52,81,84,237,15,1.8,0.9,1.5,0,0,0,0,0,0,0,18,0,18,0,0,0,0,8,0,0,0,0,0,31,0,19,22,0,0,23,18,0,0,0,20
6,6583,4,,2.82,3,   boost,68.16,82621,1688.24,366.68,     NaN,33.6,4.01,3.99,4,0.09,0,0,64.21,64.52,0,0,0,0,    NaN,4,0,0,0.07,0,1,1,8,32.939119,-106.9129891,1412,2024,6,21,22,56,52,81,84,237,15,1.8,0.9,1.5,0,0,0,0,0,0,0,18,0,18,0,0,0,0,8,0,0,0,0,0,31,0,19,22,0,0,23,18,0,0,0,20
6,6583,4,,2.83,3,   boost,57.86,82591,1691.18,369.63,     NaN,33.6,4.01,3.99,4,0.09,0,0,64.21,64.52,0,0,0,0,    NaN,4,0,0,0.07,0,1,1,8,32.939119,-106.9129891,1412,2024,6,21,22,56,52,81,84,237,15,1.8,0.9,1.5,0,0,0,0,0,0,0,18,0,18,0,0,0,0,8,0,0,0,0,0,31,0,19,22,0,0,23,18,0,0,0,20
6,6583,4,,2.84,3,   boost,53.94,82575,1692.76,371.2,     NaN,33.7,4.01,3.99,4,0.09,0,0,64.21,64.52,0,0,0,0,    NaN,4,0,0,0.07,0,1,1,8,32.939119,-106.9129891,1412,2024,6,21,22,56,52,81,84,237,15,1.8,0.9,1.5,0,0,0,0,0,0,0,18,0,18,0,0,0,0,8,0,0,0,0,0,31,0,19,22,0,0,23,18,0,0,0,20
6,6583,4,,2.85,3,   boost,51.48,82560,1694.23,372.67,     NaN,33.6,4.01,3.99,4,0.09,0,0,64.21,64.52,0,0,0,0,    NaN,4,0,0,0.07,0,1,1,8,32.939119,-106.9129891,1412,2024,6,21,22,56,52,81,84,237,15,1.8,0.9,1.5,0,0,0,0,0,0,0,18,0,18,0,0,0,0,8,0,0,0,0,0,31,0,19,22,0,0,23,18,0,0,0,20
6,6583,4,,2.86,3,   boost,38.74,82531,1697.08,375.52,     NaN,33.6,4.01,3.99,4,0.09,0,0,64.21,64.52,0,0,0,0,    NaN,4,0,0,0.07,0,1,1,8,32.939119,-106.9129891,1412,2024,6,21,22,56,52,81,84,237,15,1.8,0.9,1.5,0,0,0,0,0,0,0,18,0,18,0,0,0,0,8,0,0,0,0,0,31,0,19,22,0,0,23,18,0,0,0,20
6,6583,4,,2.87,3,   boost,30.89,82509,1699.24,377.68,     NaN,33.6,4.01,3.99,4,0.09,0,0,64.21,64.52,0,0,0,0,    NaN,4,0,0,0.07,0,1,1,8,32.939119,-106.9129891,1412,2024,6,21,22,56,52,81,84,237,15,1.8,0.9,1.5,0,0,0,0,0,0,0,18,0,18,0,0,0,0,8,0,0,0,0,0,31,0,19,22,0,0,23,18,0,0,0,20
6,6583,4,,2.88,3,   boost,27.95,82477,1702.39,380.83,     NaN,33.6,4.01,3.99,4,0.09,0,0,64.21,64.52,0,0,0,0,    NaN,4,0,0,0.07,0,1,1,8,32.939119,-106.9129891,1412,2024,6,21,22,56,52,81,84,237,15,1.8,0.9,1.5,0,0,0,0,0,0,0,18,0,18,0,0,0,0,8,0,0,0,0,0,31,0,19,22,0,0,23,18,0,0,0,20
6,6583,4,,2.89,3,   boost,13.73,82472,1702.88,381.32,     NaN,33.6,4.01,3.99,4,0.09,0,0,64.21,64.52,0,0,0,0,    NaN,4,0,0,0.07,0,1,1,8,32.939119,-106.9129891,1412,2024,6,21,22,56,52,81,84,237,15,1.8,0.9,1.5,0,0,0,0,0,0,0,18,0,18,0,0,0,0,8,0,0,0,0,0,31,0,19,22,0,0,23,18,0,0,0,20
6,6583,4,,2.9,3,   boost,6.37,82436,1706.42,384.86,     NaN,33.7,4.01,3.99,4,0.09,0,0,64.21,64.52,0,0,0,0,    NaN,4.01,0,0,0.02,0,1,1,8,32.939119,-106.9129891,1412,2024,6,21,22,56,52,81,84,237,15,1.8,0.9,1.5,0,0,0,0,0,0,0,18,0,18,0,0,0,0,8,0,0,0,0,0,31,0,19,22,0,0,23,18,0,0,0,20
6,6583,4,,2.9,3,   boost,6.37,82436,1706.42,384.86,     NaN,33.7,4.01,3.99,4,0.09,0,0,64.21,64.52,0,0,0,0,    NaN,4.01,0,0,0.02,0,1,1,8,32.939119,-106.9129891,1412,2024,6,21,22,56,52,81,84,237,15,1.8,0.9,1.5,0,0,0,0,0,0,0,18,0,18,0,0,0,0,8,0,0,0,0,0,31,0,19,22,0,0,23,18,0,0,0,20
6,6583,4,,2.91,3,   boost,6.86,82401,1709.87,388.31,     NaN,33.6,4.01,3.99,4,0.03,0,0,64.27,64.52,0,0,0,0,    NaN,4.01,0,0,0.02,0,1,1,8,32.939119,-106.9129891,1412,2024,6,21,22,56,52,81,84,237,15,1.8,0.9,1.5,0,0,0,0,0,0,0,18,0,18,0,0,0,0,8,0,0,0,0,0,31,0,19,22,0,0,23,18,0,0,0,20
6,6583,4,,2.92,3,   boost,-3.92,82371,1712.82,391.26,     NaN,33.6,4.01,3.99,4,0.03,0,0,64.27,64.52,0,0,0,0,    NaN,4.01,0,0,0.02,0,1,1,8,32.939119,-106.9129891,1412,2024,6,21,22,56,52,81,84,237,15,1.8,0.9,1.5,0,0,0,0,0,0,0,18,0,18,0,0,0,0,8,0,0,0,0,0,31,0,19,22,0,0,23,18,0,0,0,20
6,6583,4,,2.93,3,   boost,-7.85,82370,1712.92,391.36,     NaN,33.6,4.01,3.99,4,0.03,0,0,64.27,64.52,0,0,0,0,    NaN,4.01,0,0,0.02,0,1,1,8,32.939119,-106.9129891,1412,2024,6,21,22,56,52,81,84,237,15,1.8,0.9,1.5,0,0,0,0,0,0,0,18,0,18,0,0,0,0,8,0,0,0,0,0,31,0,19,22,0,0,23,18,0,0,0,20
6,6583,4,,2.94,3,   boost,-8.34,82385,1711.44,389.88,     NaN,33.6,4.01,3.99,4,0.03,0,0,64.27,64.52,0,0,0,0,    NaN,4.01,0,0,0.02,0,1,1,8,32.939119,-106.9129891,1412,2024,6,21,22,56,52,81,84,237,15,1.8,0.9,1.5,0,0,0,0,0,0,0,18,0,18,0,0,0,0,8,0,0,0,0,0,31,0,19,22,0,0,23,18,0,0,0,20
6,6583,4,,2.95,3,   boost,-10.3,82306,1719.22,397.66,     NaN,33.6,4.01,3.99,4,0.03,0,0,64.27,64.52,0,0,0,0,    NaN,4.01,0,0,0.02,0,1,1,8,32.939119,-106.9129891,1412,2024,6,21,22,56,52,81,84,237,15,1.8,0.9,1.5,0,0,0,0,0,0,0,18,0,18,0,0,0,0,8,0,0,0,0,0,31,0,19,22,0,0,23,18,0,0,0,20
6,6583,4,,2.96,3,   boost,-15.69,82321,1717.74,396.18,     NaN,33.6,4.01,3.99,4,0.03,0,0,64.27,64.52,0,0,0,0,    NaN,4.01,0,0,0.02,0,1,1,8,32.939119,-106.9129891,1412,2024,6,21,22,56,52,81,84,237,15,1.8,0.9,1.5,0,0,0,0,0,0,0,18,0,18,0,0,0,0,8,0,0,0,0,0,31,0,19,22,0,0,23,18,0,0,0,20
6,6583,4,,2.97,3,   boost,-12.26,82283,1721.48,399.93,     NaN,33.6,4.01,3.99,4,0.03,0,0,64.27,64.52,0,0,0,0,    NaN,4.01,0,0,0.02,0,1,1,8,32.939119,-106.9129891,1412,2024,6,21,22,56,52,81,84,237,15,1.8,0.9,1.5,0,0,0,0,0,0,0,18,0,18,0,0,0,0,8,0,0,0,0,0,31,0,19,22,0,0,23,18,0,0,0,20
6,6583,4,,2.98,3,   boost,-16.67,82250,1724.74,403.18,     NaN,33.6,4.01,3.99,4,0.03,0,0,64.27,64.52,0,0,0,0,    NaN,4.01,0,0,0.02,0,1,1,8,32.939119,-106.9129891,1412,2024,6,21,22,56,52,81,84,237,15,1.8,0.9,1.5,0,0,0,0,0,0,0,18,0,18,0,0,0,0,8,0,0,0,0,0,31,0,19,22,0,0,23,18,0,0,0,20
6,6583,4,,2.99,3,   boost,-14.71,82201,1729.57,408.01,     NaN,33.6,4.01,3.99,4,0.03,0,0,64.27,64.52,0,0,0,0,    NaN,4.01,0,0,0.02,0,1,1,8,32.939119,-106.9129891,1412,2024,6,21,22,56,52,81,84,237,15,1.8,0.9,1.5,0,0,0,0,0,0,0,18,0,18,0,0,0,0,8,0,0,0,0,0,31,0,19,22,0,0,23,18,0,0,0,20
6,6583,4,,3,3,   boost,-22.56,82185,1731.15,409.59,     NaN,33.6,4.01,3.99,4,0.03,0,0,64.27,64.52,0,0,0,0,    NaN,4.01,0,0,0.02,0,1,1,8,32.939119,-106.9129891,1412,2024,6,21,22,56,52,81,84,237,15,1.8,0.9,1.5,0,0,0,0,0,0,0,18,0,18,0,0,0,0,8,0,0,0,0,0,31,0,19,22,0,0,23,18,0,0,0,20
6,6583,4,,3.01,3,   boost,-20.59,82148,1734.79,413.23,     NaN,33.6,4.01,3.99,4,0.03,0,0,64.27,64.52,0,0,0,0,    NaN,4.01,0,0,0.02,0,1,1,8,32.939119,-106.9129891,1412,2024,6,21,22,56,52,81,84,237,15,1.8,0.9,1.5,0,0,0,0,0,0,0,18,0,18,0,0,0,0,8,0,0,0,0,0,31,0,19,22,0,0,23,18,0,0,0,20
6,6583,4,,3.02,3,   boost,-19.12,82126,1736.97,415.41,     NaN,33.6,4.01,3.99,4,0.03,0,0,64.27,64.52,0,0,0,0,    NaN,4.01,0,0,0.02,0,1,1,8,32.939119,-106.9129891,1412,2024,6,21,22,56,52,81,84,237,15,1.8,0.9,1.5,0,0,0,0,0,0,0,18,0,18,0,0,0,0,8,0,0,0,0,0,31,0,19,22,0,0,23,18,0,0,0,20
6,6583,4,,3.03,3,   boost,-24.03,82119,1737.66,416.1,     NaN,33.6,4.01,3.99,4,0.03,0,0,64.27,64.52,0,0,0,0,    NaN,4.01,0,0,0.02,0,1,1,8,32.939119,-106.9129891,1412,2024,6,21,22,56,52,81,84,237,15,1.8,0.9,1.5,0,0,0,0,0,0,0,18,0,18,0,0,0,0,8,0,0,0,0,0,31,0,19,22,0,0,23,18,0,0,0,20
6,6583,4,,3.04,3,   boost,-18.63,82085,1741.01,419.45,     NaN,33.6,4.01,3.99,4,0.03,0,0,64.27,64.52,0,0,0,0,    NaN,4.01,0,0,0.02,0,1,1,8,32.939119,-106.9129891,1412,2024,6,21,22,56,52,81,84,237,15,1.8,0.9,1.5,0,0,0,0,0,0,0,18,0,18,0,0,0,0,8,0,0,0,0,0,31,0,19,22,0,0,23,18,0,0,0,20
6,6583,4,,3.05,3,   boost,-19.12,82041,1745.36,423.8,     NaN,33.6,4.01,3.99,4,0.03,0,0,64.27,64.52,0,0,0,0,    NaN,4.01,0,0,0.02,0,1,1,7,32.9385176,-106.9137519,1448,2024,6,21,22,56,53,178,187,231,18,1.9,1,1.6,0,0,0,0,0,0,0,15,0,11,0,0,0,0,9,0,0,0,0,0,31,0,12,16,0,0,24,29,0,0,0,13
6,6583,4,,3.05,3,   boost,-19.12,82041,1745.36,423.8,     NaN,33.6,4.01,3.99,4,0.03,0,0,64.27,64.52,0,0,0,0,    NaN,4.01,0,0,0.02,0,1,1,7,32.9385176,-106.9137519,1448,2024,6,21,22,56,53,178,187,231,18,1.9,1,1.6,0,0,0,0,0,0,0,15,0,11,0,0,0,0,9,0,0,0,0,0,31,0,12,16,0,0,24,29,0,0,0,13
6,6583,4,,3.05,3,   boost,-19.12,82041,1745.36,423.8,     NaN,33.6,4.01,3.99,4,0.03,0,0,64.27,64.52,0,0,0,0,    NaN,4.01,0,0,0.02,0,1,1,7,32.9385176,-106.9137519,1448,2024,6,21,22,56,53,178,187,231,18,1.9,1,1.6,0,0,0,0,0,0,0,15,0,11,0,0,0,0,9,0,0,0,0,0,31,0,12,16,0,0,24,29,0,0,0,13
6,6583,4,,3.06,3,   boost,-18.63,81994,1750,428.44,     NaN,33.6,4.01,3.99,4,0.03,0,0,64.27,64.52,0,0,0,0,    NaN,4.01,0,0,0.02,0,1,1,7,32.9385176,-106.9137519,1448,2024,6,21,22,56,53,178,187,231,18,1.9,1,1.6,0,0,0,0,0,0,0,15,0,11,0,0,0,0,9,0,0,0,0,0,31,0,12,16,0,0,24,29,0,0,0,13
6,6583,4,,3.07,3,   boost,-21.57,81971,1752.27,430.71,     NaN,33.6,4.01,3.99,4,0.03,0,0,64.27,64.52,0,0,0,0,    NaN,4.01,0,0,0.02,0,1,1,7,32.9385176,-106.9137519,1448,2024,6,21,22,56,53,178,187,231,18,1.9,1,1.6,0,0,0,0,0,0,0,15,0,11,0,0,0,0,9,0,0,0,0,0,31,0,12,16,0,0,24,29,0,0,0,13
6,6583,4,,3.08,3,   boost,-21.57,81963,1753.06,431.5,     NaN,33.6,4.01,3.99,4,0.03,0,0,64.27,64.52,0,0,0,0,    NaN,4.01,0,0,0.02,0,1,1,7,32.9385176,-106.9137519,1448,2024,6,21,22,56,53,178,187,231,18,1.9,1,1.6,0,0,0,0,0,0,0,15,0,11,0,0,0,0,9,0,0,0,0,0,31,0,12,16,0,0,24,29,0,0,0,13
6,6583,4,,3.09,4,    fast,-23.05,81906,1758.7,437.14,     NaN,33.6,4.01,3.99,4,0.03,0,0,64.27,64.52,0,0,0,0,    NaN,4.01,0,0,0.02,0,1,1,7,32.9385176,-106.9137519,1448,2024,6,21,22,56,53,178,187,231,18,1.9,1,1.6,0,0,0,0,0,0,0,15,0,11,0,0,0,0,9,0,0,0,0,0,31,0,12,16,0,0,24,29,0,0,0,13
6,6583,4,,3.09,4,    fast,-23.05,81906,1758.7,437.14,     NaN,33.6,4.01,3.99,4,0.03,0,0,64.27,64.52,0,0,0,0,    NaN,4.01,0,0,0.02,0,1,1,7,32.9385176,-106.9137519,1448,2024,6,21,22,56,53,178,187,231,18,1.9,1,1.6,0,0,0,0,0,0,0,15,0,11,0,0,0,0,9,0,0,0,0,0,31,0,12,16,0,0,24,29,0,0,0,13
6,6583,4,,3.1,4,    fast,-19.12,81866,1762.65,441.09,     NaN,33.6,4.01,3.99,4,0.03,0,0,64.27,64.52,0,0,0,0,    NaN,4.01,0,0,0.02,0,1,1,7,32.9385176,-106.9137519,1448,2024,6,21,22,56,53,178,187,231,18,1.9,1,1.6,0,0,0,0,0,0,0,15,0,11,0,0,0,0,9,0,0,0,0,0,31,0,12,16,0,0,24,29,0,0,0,13
6,6583,4,,3.11,4,    fast,-18.63,81852,1764.04,442.48,     NaN,33.6,4.01,3.99,4,0.03,0,0,64.27,64.52,0,0,0,0,    NaN,4.01,0,0,0.02,0,1,1,7,32.9385176,-106.9137519,1448,2024,6,21,22,56,53,178,187,231,18,1.9,1,1.6,0,0,0,0,0,0,0,15,0,11,0,0,0,0,9,0,0,0,0,0,31,0,12,16,0,0,24,29,0,0,0,13
6,6583,4,,3.12,4,    fast,-15.69,81831,1766.12,444.56,     NaN,33.6,4.01,3.99,4,0.03,0,0,64.27,64.52,0,0,0,0,    NaN,4.01,0,0,0.02,0,1,1,7,32.9385176,-106.9137519,1448,2024,6,21,22,56,53,178,187,231,18,1.9,1,1.6,0,0,0,0,0,0,0,15,0,11,0,0,0,0,9,0,0,0,0,0,31,0,12,16,0,0,24,29,0,0,0,13
6,6583,4,,3.13,4,    fast,-17.16,81802,1768.99,447.43,     NaN,33.6,4.01,3.99,4,0.03,0,0,64.27,64.52,0,0,0,0,    NaN,4.01,0,0,0.02,0,1,1,7,32.9385176,-106.9137519,1448,2024,6,21,22,56,53,178,187,231,18,1.9,1,1.6,0,0,0,0,0,0,0,15,0,11,0,0,0,0,9,0,0,0,0,0,31,0,12,16,0,0,24,29,0,0,0,13
6,6583,4,,3.14,4,    fast,-21.08,81780,1771.17,449.61,     NaN,33.6,4.01,3.99,4,0.03,0,0,64.27,64.52,0,0,0,0,    NaN,4.01,0,0,0.02,0,1,1,7,32.9385176,-106.9137519,1448,2024,6,21,22,56,53,178,187,231,18,1.9,1,1.6,0,0,0,0,0,0,0,15,0,11,0,0,0,0,9,0,0,0,0,0,31,0,12,16,0,0,24,29,0,0,0,13
6,6583,4,,3.15,4,    fast,-18.14,81771,1772.06,450.5,     NaN,33.7,4.01,3.99,4,0.03,0,0,64.27,64.52,0,0,0,0,    NaN,4.01,0,0,0.02,0,1,1,7,32.9385176,-106.9137519,1448,2024,6,21,22,56,53,178,187,231,18,1.9,1,1.6,0,0,0,0,0,0,0,15,0,11,0,0,0,0,9,0,0,0,0,0,31,0,12,16,0,0,24,29,0,0,0,13
6,6583,4,,3.16,4,    fast,-17.16,81750,1774.14,452.58,     NaN,33.6,4.01,3.99,4,0.03,0,0,64.27,64.52,0,0,0,0,    NaN,4.01,0,0,0.02,0,1,1,7,32.9385176,-106.9137519,1448,2024,6,21,22,56,53,178,187,231,18,1.9,1,1.6,0,0,0,0,0,0,0,15,0,11,0,0,0,0,9,0,0,0,0,0,31,0,12,16,0,0,24,29,0,0,0,13
6,6583,4,,3.17,4,    fast,-20.59,81740,1775.13,453.57,     NaN,33.6,4.01,3.99,4,0.03,0,0,64.27,64.52,0,0,0,0,    NaN,4.01,0,0,0.02,0,1,1,7,32.9385176,-106.9137519,1448,2024,6,21,22,56,53,178,187,231,18,1.9,1,1.6,0,0,0,0,0,0,0,15,0,11,0,0,0,0,9,0,0,0,0,0,31,0,12,16,0,0,24,29,0,0,0,13
6,6583,4,,3.18,4,    fast,-18.14,81703,1778.79,457.23,     NaN,33.7,4.01,3.99,4,0.03,0,0,64.27,64.52,0,0,0,0,    NaN,4.01,0,0,0.02,0,1,1,7,32.9385176,-106.9137519,1448,2024,6,21,22,56,53,178,187,231,18,1.9,1,1.6,0,0,0,0,0,0,0,15,0,11,0,0,0,0,9,0,0,0,0,0,31,0,12,16,0,0,24,29,0,0,0,13
6,6583,4,,3.19,4,    fast,-19.12,81693,1779.78,458.22,     NaN,33.6,4.01,3.99,4,0.03,0,0,64.27,64.52,0,0,0,0,    NaN,4.01,0,0,0.02,0,1,1,7,32.9385176,-106.9137519,1448,2024,6,21,22,56,53,178,187,231,18,1.9,1,1.6,0,0,0,0,0,0,0,15,0,11,0,0,0,0,9,0,0,0,0,0,31,0,12,16,0,0,24,29,0,0,0,13
6,6583,4,,3.2,4,    fast,-20.1,81673,1781.77,460.21,     NaN,33.6,4.01,3.99,4,0.03,0,0,64.27,64.52,0,0,0,0,    NaN,4.01,0,0,0.02,0,1,1,7,32.9385176,-106.9137519,1448,2024,6,21,22,56,53,178,187,231,18,1.9,1,1.6,0,0,0,0,0,0,0,15,0,11,0,0,0,0,9,0,0,0,0,0,31,0,12,16,0,0,24,29,0,0,0,13
6,6583,4,,3.21,4,    fast,-17.16,81652,1783.85,462.29,     NaN,33.6,4.01,3.99,4,0.03,0,0,64.27,64.52,0,0,0,0,    NaN,4.01,0,0,0.02,0,1,1,7,32.9385176,-106.9137519,1448,2024,6,21,22,56,53,178,187,231,18,1.9,1,1.6,0,0,0,0,0,0,0,15,0,11,0,0,0,0,9,0,0,0,0,0,31,0,12,16,0,0,24,29,0,0,0,13
6,6583,4,,3.22,4,    fast,-21.57,81624,1786.62,465.06,     NaN,33.6,4,3.99,3.99,0.03,0,0,64.27,64.52,0,0,0,0,    NaN,4,0,0,0.06,0,1,1,7,32.9385176,-106.9137519,1448,2024,6,21,22,56,53,178,187,231,18,1.9,1,1.6,0,0,0,0,0,0,0,15,0,11,0,0,0,0,9,0,0,0,0,0,31,0,12,16,0,0,24,29,0,0,0,13
6,6583,4,,3.22,4,    fast,-21.57,81624,1786.62,465.06,     NaN,33.6,4,3.99,3.99,0.03,0,0,64.27,64.52,0,0,0,0,    NaN,4,0,0,0.06,0,1,1,7,32.9385176,-106.9137519,1448,2024,6,21,22,56,53,178,187,231,18,1.9,1,1.6,0,0,0,0,0,0,0,15,0,11,0,0,0,0,9,0,0,0,0,0,31,0,12,16,0,0,24,29,0,0,0,13
6,6583,4,,3.23,4,    fast,-20.59,81603,1788.71,467.15,     NaN,33.6,4,3.99,3.99,0.08,0,0,64.21,64.46,0,0,0,0,    NaN,4,0,0,0.06,0,1,1,7,32.9385176,-106.9137519,1448,2024,6,21,22,56,53,178,187,231,18,1.9,1,1.6,0,0,0,0,0,0,0,15,0,11,0,0,0,0,9,0,0,0,0,0,31,0,12,16,0,0,24,29,0,0,0,13
6,6583,4,,3.24,4,    fast,-22.06,81589,1790.1,468.54,     NaN,33.6,4,3.99,3.99,0.08,0,0,64.21,64.46,0,0,0,0,    NaN,4,0,0,0.06,0,1,1,7,32.9385176,-106.9137519,1448,2024,6,21,22,56,53,178,187,231,18,1.9,1,1.6,0,0,0,0,0,0,0,15,0,11,0,0,0,0,9,0,0,0,0,0,31,0,12,16,0,0,24,29,0,0,0,13
6,6583,4,,3.25,4,    fast,-20.1,81563,1792.68,471.12,     NaN,33.7,4,3.99,3.99,0.08,0,0,64.21,64.46,0,0,0,0,    NaN,4,0,0,0.06,0,1,1,7,32.9385176,-106.9137519,1448,2024,6,21,22,56,53,178,187,231,18,1.9,1,1.6,0,0,0,0,0,0,0,15,0,11,0,0,0,0,9,0,0,0,0,0,31,0,12,16,0,0,24,29,0,0,0,13
6,6583,4,,3.26,4,    fast,-22.06,81533,1795.65,474.09,     NaN,33.7,4,3.99,3.99,0.08,0,0,64.21,64.46,0,0,0,0,    NaN,4,0,0,0.06,0,1,1,7,32.9385176,-106.9137519,1448,2024,6,21,22,56,53,178,187,231,18,1.9,1,1.6,0,0,0,0,0,0,0,15,0,11,0,0,0,0,9,0,0,0,0,0,31,0,12,16,0,0,24,29,0,0,0,13
6,6583,4,,3.27,4,    fast,-19.61,81503,1798.63,477.07,     NaN,33.6,4,3.99,3.99,0.08,0,0,64.21,64.46,0,0,0,0,    NaN,4,0,0,0.06,0,1,1,7,32.9385176,-106.9137519,1448,2024,6,21,22,56,53,178,187,231,18,1.9,1,1.6,0,0,0,0,0,0,0,15,0,11,0,0,0,0,9,0,0,0,0,0,31,0,12,16,0,0,24,29,0,0,0,13
6,6583,4,,3.28,4,    fast,-14.22,81486,1800.32,478.76,     NaN,33.7,4,3.99,3.99,0.08,0,0,64.21,64.46,0,0,0,0,    NaN,4,0,0,0.06,0,1,1,7,32.9385176,-106.9137519,1448,2024,6,21,22,56,53,178,187,231,18,1.9,1,1.6,0,0,0,0,0,0,0,15,0,11,0,0,0,0,9,0,0,0,0,0,31,0,12,16,0,0,24,29,0,0,0,13
6,6583,4,,3.29,4,    fast,-20.1,81468,1802.11,480.55,     NaN,33.7,4,3.99,3.99,0.08,0,0,64.21,64.46,0,0,0,0,    NaN,4,0,0,0.06,0,1,1,7,32.9385176,-106.9137519,1448,2024,6,21,22,56,53,178,187,231,18,1.9,1,1.6,0,0,0,0,0,0,0,15,0,11,0,0,0,0,9,0,0,0,0,0,31,0,12,16,0,0,24,29,0,0,0,13
6,6583,4,,3.3,4,    fast,-19.61,81433,1805.58,484.02,     NaN,33.6,4,3.99,3.99,0.08,0,0,64.21,64.46,0,0,0,0,    NaN,4,0,0,0.06,0,1,1,7,32.9385176,-106.9137519,1448,2024,6,21,22,56,53,178,187,231,18,1.9,1,1.6,0,0,0,0,0,0,0,15,0,11,0,0,0,0,9,0,0,0,0,0,31,0,12,16,0,0,24,29,0,0,0,13
6,6583,4,,3.31,4,    fast,-20.59,81395,1809.36,487.8,     NaN,33.6,4,3.99,3.99,0.08,0,0,64.21,64.46,0,0,0,0,    NaN,4,0,0,0.06,0,1,1,7,32.9385176,-106.9137519,1448,2024,6,21,22,56,53,178,187,231,18,1.9,1,1.6,0,0,0,0,0,0,0,15,0,11,0,0,0,0,9,0,0,0,0,0,31,0,12,16,0,0,24,29,0,0,0,13
6,6583,4,,3.32,4,    fast,-22.06,81383,1810.55,488.99,     NaN,33.6,4,3.99,3.99,0.08,0,0,64.21,64.46,0,0,0,0,    NaN,4,0,0,0.06,0,1,1,7,32.9385176,-106.9137519,1448,2024,6,21,22,56,53,178,187,231,18,1.9,1,1.6,0,0,0,0,0,0,0,15,0,11,0,0,0,0,9,0,0,0,0,0,31,0,12,16,0,0,24,29,0,0,0,13
6,6583,4,,3.33,4,    fast,-21.57,81350,1813.83,492.27,     NaN,33.6,4,3.99,3.99,0.08,0,0,64.21,64.46,0,0,0,0,    NaN,4,0,0,0.06,0,1,1,7,32.9385176,-106.9137519,1448,2024,6,21,22,56,53,178,187,231,18,1.9,1,1.6,0,0,0,0,0,0,0,15,0,11,0,0,0,0,9,0,0,0,0,0,31,0,12,16,0,0,24,29,0,0,0,13
6,6583,4,,3.34,4,    fast,-21.08,81325,1816.32,494.76,     NaN,33.6,4,3.99,3.99,0.08,0,0,64.21,64.46,0,0,0,0,    NaN,4,0,0,0.06,0,1,1,7,32.9385176,-106.9137519,1448,2024,6,21,22,56,53,178,187,231,18,1.9,1,1.6,0,0,0,0,0,0,0,15,0,11,0,0,0,0,9,0,0,0,0,0,31,0,12,16,0,0,24,29,0,0,0,13
6,6583,4,,3.35,4,    fast,-18.14,81297,1819.11,497.55,     NaN,33.6,4,3.99,3.99,0.08,0,0,64.21,64.46,0,0,0,0,    NaN,4,0,0,0.06,0,1,1,7,32.9385176,-106.9137519,1448,2024,6,21,22,56,53,178,187,231,18,1.9,1,1.6,0,0,0,0,0,0,0,15,0,11,0,0,0,0,9,0,0,0,0,0,31,0,12,16,0,0,24,29,0,0,0,13
6,6583,4,,3.36,4,    fast,-20.59,81287,1820.1,498.54,     NaN,33.6,4,3.99,3.99,0.08,0,0,64.21,64.46,0,0,0,0,    NaN,4,0,0,0.06,0,1,1,7,32.9385176,-106.9137519,1448,2024,6,21,22,56,53,178,187,231,18,1.9,1,1.6,0,0,0,0,0,0,0,15,0,11,0,0,0,0,9,0,0,0,0,0,31,0,12,16,0,0,24,29,0,0,0,13
6,6583,4,,3.37,4,    fast,-17.16,81242,1824.58,503.02,     NaN,33.6,4,3.99,3.99,0.08,0,0,64.21,64.46,0,0,0,0,    NaN,4,0,0,0.06,0,1,1,7,32.9385176,-106.9137519,1448,2024,6,21,22,56,53,178,187,231,18,1.9,1,1.6,0,0,0,0,0,0,0,15,0,11,0,0,0,0,9,0,0,0,0,0,31,0,12,16,0,0,24,29,0,0,0,13
6,6583,4,,3.38,4,    fast,-19.61,81220,1826.77,505.21,     NaN,33.6,4,3.99,3.99,0.08,0,0,64.21,64.46,0,0,0,0,    NaN,4,0,0,0.06,0,1,1,7,32.9385176,-106.9137519,1448,2024,6,21,22,56,53,178,187,231,18,1.9,1,1.6,0,0,0,0,0,0,0,15,0,11,0,0,0,0,9,0,0,0,0,0,31,0,12,16,0,0,24,29,0,0,0,13
6,6583,4,,3.39,4,    fast,-20.1,81203,1828.46,506.9,     NaN,33.6,4,3.99,3.99,0.08,0,0,64.21,64.46,0,0,0,0,    NaN,4,0,0,0.06,0,1,1,7,32.9385176,-106.9137519,1448,2024,6,21,22,56,53,178,187,231,18,1.9,1,1.6,0,0,0,0,0,0,0,15,0,11,0,0,0,0,9,0,0,0,0,0,31,0,12,16,0,0,24,29,0,0,0,13
6,6583,4,,3.4,4,    fast,-16.18,81184,1830.35,508.79,     NaN,33.7,4,3.99,3.99,0.08,0,0,64.21,64.46,0,0,0,0,    NaN,4,0,0,0.06,0,1,1,7,32.9385176,-106.9137519,1448,2024,6,21,22,56,53,178,187,231,18,1.9,1,1.6,0,0,0,0,0,0,0,15,0,11,0,0,0,0,9,0,0,0,0,0,31,0,12,16,0,0,24,29,0,0,0,13
6,6583,4,,3.41,4,    fast,-19.12,81161,1832.65,511.09,     NaN,33.6,4,3.99,3.99,0.08,0,0,64.21,64.46,0,0,0,0,    NaN,4,0,0,0.06,0,1,1,7,32.9385176,-106.9137519,1448,2024,6,21,22,56,53,178,187,231,18,1.9,1,1.6,0,0,0,0,0,0,0,15,0,11,0,0,0,0,9,0,0,0,0,0,31,0,12,16,0,0,24,29,0,0,0,13
6,6583,4,,3.42,4,    fast,-18.63,81145,1834.24,512.68,     NaN,33.6,4,3.99,3.99,0.08,0,0,64.21,64.46,0,0,0,0,    NaN,4,0,0,0.06,0,1,1,7,32.9385176,-106.9137519,1448,2024,6,21,22,56,53,178,187,231,18,1.9,1,1.6,0,0,0,0,0,0,0,15,0,11,0,0,0,0,9,0,0,0,0,0,31,0,12,16,0,0,24,29,0,0,0,13
6,6583,4,,3.43,4,    fast,-14.22,81104,1838.33,516.77,     NaN,33.6,4,3.99,3.99,0.08,0,0,64.21,64.46,0,0,0,0,    NaN,4,0,0,0.06,0,1,1,7,32.9385176,-106.9137519,1448,2024,6,21,22,56,53,178,187,231,18,1.9,1,1.6,0,0,0,0,0,0,0,15,0,11,0,0,0,0,9,0,0,0,0,0,31,0,12,16,0,0,24,29,0,0,0,13
6,6583,4,,3.44,4,    fast,-23.05,81092,1839.52,517.96,     NaN,33.6,4,3.99,3.99,0.08,0,0,64.21,64.46,0,0,0,0,    NaN,4,0,0,0.06,0,1,1,7,32.9385176,-106.9137519,1448,2024,6,21,22,56,53,178,187,231,18,1.9,1,1.6,0,0,0,0,0,0,0,15,0,11,0,0,0,0,9,0,0,0,0,0,31,0,12,16,0,0,24,29,0,0,0,13
6,6583,4,,3.45,4,    fast,-19.12,81076,1841.12,519.56,     NaN,33.6,4,3.99,3.99,0.08,0,0,64.21,64.46,0,0,0,0,    NaN,4,0,0,0.06,0,1,1,7,32.9385176,-106.9137519,1448,2024,6,21,22,56,53,178,187,231,18,1.9,1,1.6,0,0,0,0,0,0,0,15,0,11,0,0,0,0,9,0,0,0,0,0,31,0,12,16,0,0,24,29,0,0,0,13
